,GP550R
RamanShit,Intensity
258.762,236.22
261.817,236.22
264.871,236.22
267.926,236.22
270.981,236.22
274.035,236.22
277.09,236.22
280.145,236.22
283.199,236.22
286.254,236.22
289.309,236.22
292.363,236.22
295.418,236.22
298.473,236.22
301.527,236.22
304.582,551.181
307.637,551.181
310.691,551.181
313.746,551.181
316.801,551.181
319.855,551.181
322.91,551.181
325.965,551.181
329.019,236.22
332.074,236.22
335.129,236.22
338.183,236.22
341.238,236.22
344.293,236.22
347.347,236.22
350.402,236.22
353.457,236.22
356.511,236.22
359.566,236.22
362.621,236.22
365.675,236.22
368.73,236.22
371.785,236.22
374.839,236.22
377.894,236.22
380.949,236.22
384.003,236.22
387.058,236.22
390.113,551.181
393.167,551.181
396.222,866.142
399.277,1181.1
402.331,2125.98
405.386,3700.79
408.441,4330.71
411.495,5275.59
414.55,4015.75
417.605,3385.83
420.659,1811.02
423.714,1181.1
426.768,866.142
429.823,551.181
432.878,551.181
435.932,551.181
438.987,236.22
442.042,236.22
445.096,236.22
448.151,236.22
451.206,236.22
454.26,236.22
457.315,236.22
460.37,236.22
463.424,236.22
466.479,551.181
469.534,551.181
472.588,866.142
475.643,1181.1
478.698,1496.06
481.752,2440.94
484.807,3700.79
487.862,4645.67
490.916,5590.55
493.971,4330.71
497.026,3700.79
500.08,2440.94
503.135,1496.06
506.19,1181.1
509.244,866.142
512.299,551.181
515.354,236.22
518.408,236.22
521.463,236.22
524.518,236.22
527.572,236.22
530.627,236.22
533.682,236.22
536.736,236.22
539.791,236.22
542.846,236.22
545.9,236.22
548.955,236.22
552.01,551.181
555.064,551.181
558.119,551.181
561.174,551.181
564.228,551.181
567.283,551.181
570.338,551.181
573.392,551.181
576.447,551.181
579.502,551.181
582.556,551.181
585.611,551.181
588.666,551.181
591.72,551.181
594.775,866.142
597.83,866.142
600.884,1181.1
603.939,1496.06
606.994,1811.02
610.048,2440.94
613.103,2755.91
616.158,2755.91
619.212,2755.91
622.267,2440.94
625.322,2125.98
628.376,1181.1
631.431,866.142
634.486,551.181
637.54,236.22
640.595,236.22
643.65,236.22
646.704,236.22
649.759,236.22
652.814,236.22
655.868,236.22
658.923,551.181
661.977,1181.1
665.032,1811.02
668.087,2755.91
671.141,1811.02
674.196,1496.06
677.251,866.142
680.305,551.181
683.36,551.181
686.415,236.22
689.469,236.22
692.524,236.22
695.579,236.22
698.633,236.22
701.688,236.22
704.743,236.22
707.797,236.22
710.852,236.22
713.907,236.22
716.961,236.22
720.016,236.22
723.071,236.22
726.125,236.22
729.18,236.22
732.235,236.22
735.289,236.22
738.344,236.22
741.399,236.22
744.453,236.22
747.508,236.22
750.563,236.22
753.617,236.22
756.672,236.22
759.727,236.22
762.781,236.22
765.836,236.22
768.891,236.22
771.945,236.22
775,236.22
778.055,236.22
781.109,236.22
784.164,236.22
787.219,236.22
790.273,236.22
793.328,236.22
796.383,236.22
799.437,236.22
802.492,236.22
805.547,236.22
808.601,236.22
811.656,236.22
814.711,236.22
817.765,236.22
820.82,236.22
823.875,236.22
826.929,236.22
829.984,236.22
833.039,236.22
836.093,236.22
839.148,236.22
842.203,236.22
845.257,236.22
848.312,236.22
851.367,236.22
854.421,236.22
857.476,236.22
860.531,236.22
863.585,236.22
866.64,236.22
869.695,236.22
872.749,236.22
875.804,236.22
878.859,236.22
881.913,236.22
884.968,236.22
888.023,236.22
891.077,236.22
894.132,236.22
897.186,236.22
900.241,236.22
903.296,236.22
906.35,236.22
909.405,236.22
912.46,236.22
915.514,236.22
918.569,236.22
921.624,236.22
924.678,236.22
927.733,236.22
930.788,236.22
933.842,236.22
936.897,236.22
939.952,236.22
943.006,236.22
946.061,236.22
949.116,236.22
952.17,236.22
955.225,236.22
958.28,236.22
961.334,236.22
964.389,236.22
967.444,236.22
970.498,551.181
973.553,551.181
976.608,551.181
979.662,551.181
982.717,866.142
985.772,1181.1
988.826,1811.02
991.881,2125.98
994.936,2755.91
997.99,4960.63
1001.05,11259.8
1004.1,15984.3
1007.15,38346.5
1010.21,15984.3
1013.26,13779.5
1016.32,8110.24
1019.37,3700.79
1022.43,2125.98
1025.48,1496.06
1028.54,1181.1
1031.59,866.142
1034.65,551.181
1037.7,236.22
1040.76,236.22
1043.81,236.22
1046.86,236.22
1049.92,236.22
1052.97,236.22
1056.03,236.22
1059.08,236.22
1062.14,236.22
1065.19,236.22
1068.25,236.22
1071.3,236.22
1074.36,236.22
1077.41,236.22
1080.47,236.22
1083.52,236.22
1086.58,236.22
1089.63,236.22
1092.68,551.181
1095.74,551.181
1098.79,551.181
1101.85,551.181
1104.9,866.142
1107.96,1181.1
1111.01,1181.1
1114.07,1496.06
1117.12,1811.02
1120.18,1811.02
1123.23,2125.98
1126.29,2755.91
1129.34,4330.71
1132.4,5275.59
1135.45,6850.39
1138.5,5275.59
1141.56,4960.63
1144.61,3700.79
1147.67,2440.94
1150.72,1496.06
1153.78,1181.1
1156.83,866.142
1159.89,551.181
1162.94,551.181
1166,551.181
1169.05,551.181
1172.11,551.181
1175.16,551.181
1178.22,551.181
1181.27,551.181
1184.32,551.181
1187.38,551.181
1190.43,236.22
1193.49,236.22
1196.54,236.22
1199.6,236.22
1202.65,236.22
1205.71,551.181
1208.76,551.181
1211.82,551.181
1214.87,551.181
1217.93,551.181
1220.98,551.181
1224.04,551.181
1227.09,551.181
1230.14,551.181
1233.2,551.181
1236.25,236.22
1239.31,236.22
1242.36,236.22
1245.42,236.22
1248.47,236.22
1251.53,236.22
1254.58,236.22
1257.64,236.22
1260.69,236.22
1263.75,236.22
1266.8,236.22
1269.86,236.22
1272.91,236.22
1275.96,236.22
1279.02,236.22
1282.07,236.22
1285.13,236.22
1288.18,236.22
1291.24,236.22
1294.29,236.22
1297.35,236.22
1300.4,236.22
1303.46,236.22
1306.51,236.22
1309.57,236.22
1312.62,236.22
1315.68,236.22
1318.73,236.22
1321.78,236.22
1324.84,236.22
1327.89,236.22
1330.95,236.22
1334,236.22
1337.06,236.22
1340.11,236.22
1343.17,236.22
1346.22,236.22
1349.28,236.22
1352.33,236.22
1355.39,236.22
1358.44,236.22
1361.5,236.22
1364.55,236.22
1367.6,236.22
1370.66,236.22
1373.71,236.22
1376.77,236.22
1379.82,236.22
1382.88,236.22
1385.93,236.22
1388.99,236.22
1392.04,236.22
1395.1,236.22
1398.15,236.22
1401.21,236.22
1404.26,236.22
1407.32,236.22
1410.37,236.22
1413.42,236.22
1416.48,236.22
1419.53,236.22
1422.59,236.22
1425.64,236.22
1428.7,236.22
1431.75,236.22
1434.81,236.22
1437.86,236.22
1440.92,236.22
1443.97,236.22
1447.03,236.22
1450.08,236.22
1453.14,236.22
1456.19,236.22
1459.24,236.22
1462.3,236.22
1465.35,236.22
1468.41,236.22
1471.46,236.22
1474.52,236.22
1477.57,236.22
1480.63,236.22
1483.68,236.22
1486.74,236.22
1489.79,236.22
1492.85,236.22
1495.9,236.22
1498.95,236.22
1502.01,236.22
1505.06,236.22
1508.12,236.22
1511.17,236.22
1514.23,236.22
1517.28,236.22
1520.34,236.22
1523.39,236.22
1526.45,236.22
1529.5,236.22
1532.56,236.22
1535.61,236.22
1538.67,236.22
1541.72,236.22
1544.77,236.22
1547.83,236.22
1550.88,551.181
1553.94,551.181
1556.99,551.181
1560.05,551.181
1563.1,551.181
1566.16,236.22
1569.21,236.22
1572.27,236.22
1575.32,236.22
1578.38,236.22
1581.43,236.22
1584.49,236.22
1587.54,236.22
1590.59,236.22
1593.65,236.22
1596.7,236.22
1599.76,236.22
1602.81,236.22
1605.87,236.22
1608.92,551.181
1611.98,551.181
1615.03,236.22
1618.09,236.22
1621.14,236.22
1624.2,551.181
1627.25,551.181
1630.31,551.181
1633.36,551.181
1636.41,551.181
1639.47,551.181
1642.52,236.22
1645.58,236.22
1648.63,236.22
1651.69,236.22
1654.74,236.22
1657.8,236.22
1660.85,236.22
1663.91,236.22
1666.96,236.22
1670.02,551.181
1673.07,551.181
1676.13,551.181
1679.18,551.181
1682.23,551.181
1685.29,551.181
1688.34,551.181
1691.4,551.181
1694.45,551.181
1697.51,551.181
1700.56,551.181
1703.62,551.181
1706.67,551.181
1709.73,551.181
1712.78,551.181
1715.84,236.22
1718.89,236.22
1721.95,236.22
1725,236.22
1728.05,236.22
1731.11,236.22
1734.16,236.22
1737.22,236.22
1740.27,236.22
1743.33,236.22
1746.38,236.22
1749.44,236.22
1752.49,236.22
1755.55,236.22
1758.6,236.22
1761.66,236.22
1764.71,236.22
1767.77,236.22
1770.82,551.181
1773.87,551.181
1776.93,551.181
1779.98,551.181
1783.04,551.181
1786.09,551.181
1789.15,236.22
1792.2,236.22
1795.26,236.22
1798.31,236.22
1801.37,236.22
1804.42,236.22
1807.48,551.181
1810.53,551.181
1813.59,236.22
1816.64,236.22
1819.69,236.22
1822.75,236.22
1825.8,236.22
1828.86,236.22
1831.91,236.22
1834.97,551.181
1838.02,551.181
1841.08,236.22
1844.13,236.22
1847.19,236.22
1850.24,236.22
1853.3,236.22
1856.35,236.22
1859.41,236.22
1862.46,551.181
1865.51,551.181
1868.57,551.181
1871.62,551.181
1874.68,551.181
1877.73,551.181
1880.79,551.181
1883.84,551.181
1886.9,551.181
1889.95,551.181
1893.01,551.181
1896.06,551.181
1899.12,551.181
1902.17,551.181
1905.23,551.181
1908.28,551.181
1911.33,551.181
1914.39,551.181
1917.44,551.181
1920.5,551.181
1923.55,551.181
1926.61,551.181
1929.66,551.181
1932.72,551.181
1935.77,551.181
1938.83,551.181
1941.88,551.181
1944.94,551.181
1947.99,551.181
1951.05,551.181
1954.1,551.181
1957.15,551.181
1960.21,551.181
1963.26,551.181
1966.32,551.181
1969.37,551.181
1972.43,551.181
1975.48,551.181
1978.54,551.181
1981.59,551.181
1984.65,551.181
1987.7,551.181
1990.76,551.181
1993.81,551.181
1996.86,551.181
1999.92,551.181
2002.97,551.181
2006.03,551.181
2009.08,236.22
2012.14,236.22
2015.19,236.22
2018.25,236.22
2021.3,236.22
2024.36,236.22
2027.41,236.22
2030.47,236.22
2033.52,236.22
2036.58,236.22
2039.63,236.22
2042.68,236.22
2045.74,236.22
2048.79,551.181
2051.85,551.181
2054.9,551.181
2057.96,551.181
2061.01,551.181
2064.07,551.181
2067.12,551.181
2070.18,551.181
2073.23,551.181
2076.29,551.181
2079.34,551.181
2082.4,551.181
2085.45,551.181
2088.5,551.181
2091.56,551.181
2094.61,551.181
2097.67,866.142
2100.72,866.142
2103.78,551.181
2106.83,551.181
2109.89,551.181
2112.94,551.181
2116,551.181
2119.05,551.181
2122.11,551.181
2125.16,551.181
2128.22,551.181
2131.27,551.181
2134.32,551.181
2137.38,551.181
2140.43,551.181
2143.49,551.181
2146.54,551.181
2149.6,551.181
2152.65,551.181
2155.71,551.181
2158.76,551.181
2161.82,551.181
2164.87,551.181
2167.93,551.181
2170.98,551.181
2174.04,551.181
2177.09,551.181
2180.14,551.181
2183.2,551.181
2186.25,551.181
2189.31,551.181
2192.36,551.181
2195.42,551.181
2198.47,551.181
2201.53,551.181
2204.58,551.181
2207.64,551.181
2210.69,551.181
2213.75,551.181
2216.8,551.181
2219.86,551.181
2222.91,551.181
2225.96,551.181
2229.02,866.142
2232.07,866.142
2235.13,551.181
2238.18,551.181
2241.24,236.22
2244.29,236.22
2247.35,236.22
2250.4,236.22
2253.46,551.181
2256.51,551.181
2259.57,551.181
2262.62,551.181
2265.68,551.181
2268.73,551.181
2271.78,551.181
2274.84,551.181
2277.89,551.181
2280.95,551.181
2284,551.181
2287.06,236.22
