,GP550R
RamanShit,Intensity
261.817,157.48
264.871,157.48
267.926,157.48
270.981,157.48
274.035,314.961
277.09,314.961
280.145,314.961
283.199,472.441
286.254,472.441
289.309,472.441
292.363,629.921
295.418,629.921
298.473,629.921
301.527,787.402
304.582,944.882
307.637,1102.36
310.691,1417.32
313.746,1732.28
316.801,2047.24
319.855,2204.72
322.91,2519.69
325.965,2992.13
329.019,3307.09
332.074,3622.05
335.129,4409.45
338.183,5826.77
341.238,6771.65
344.293,8031.5
347.347,6614.17
350.402,5511.81
353.457,3464.57
356.511,2677.17
359.566,2677.17
362.621,2834.65
365.675,2992.13
368.73,3149.61
371.785,3464.57
374.839,2992.13
377.894,2519.69
380.949,1574.8
384.003,944.882
387.058,787.402
390.113,472.441
393.167,314.961
396.222,157.48
399.277,157.48
402.331,157.48
405.386,157.48
408.441,157.48
411.495,157.48
414.55,157.48
417.605,157.48
420.659,157.48
423.714,157.48
426.768,157.48
429.823,157.48
432.878,157.48
435.932,157.48
438.987,157.48
442.042,157.48
445.096,157.48
448.151,157.48
451.206,157.48
454.26,157.48
457.315,157.48
460.37,157.48
463.424,157.48
466.479,314.961
469.534,472.441
472.588,629.921
475.643,944.882
478.698,1102.36
481.752,1259.84
484.807,1417.32
487.862,1417.32
490.916,1574.8
493.971,1732.28
497.026,1732.28
500.08,2047.24
503.135,1574.8
506.19,1417.32
509.244,944.882
512.299,629.921
515.354,472.441
518.408,472.441
521.463,472.441
524.518,472.441
527.572,472.441
530.627,472.441
533.682,472.441
536.736,629.921
539.791,787.402
542.846,944.882
545.9,1102.36
548.955,1574.8
552.01,2047.24
555.064,2519.69
558.119,2047.24
561.174,1889.76
564.228,1574.8
567.283,1102.36
570.338,944.882
573.392,944.882
576.447,944.882
579.502,944.882
582.556,944.882
585.611,787.402
588.666,787.402
591.72,787.402
594.775,787.402
597.83,787.402
600.884,629.921
603.939,629.921
606.994,629.921
610.048,629.921
613.103,629.921
616.158,629.921
619.212,629.921
622.267,787.402
625.322,944.882
628.376,944.882
631.431,1102.36
634.486,1102.36
637.54,944.882
640.595,944.882
643.65,787.402
646.704,629.921
649.759,472.441
652.814,472.441
655.868,472.441
658.923,314.961
661.977,314.961
665.032,314.961
668.087,314.961
671.141,314.961
674.196,314.961
677.251,314.961
680.305,314.961
683.36,157.48
686.415,157.48
689.469,157.48
692.524,157.48
695.579,157.48
698.633,157.48
701.688,157.48
704.743,157.48
707.797,157.48
710.852,157.48
713.907,157.48
716.961,157.48
720.016,157.48
723.071,157.48
726.125,157.48
729.18,157.48
732.235,157.48
735.289,157.48
738.344,157.48
741.399,157.48
744.453,157.48
747.508,157.48
750.563,157.48
753.617,157.48
756.672,157.48
759.727,157.48
762.781,157.48
765.836,157.48
768.891,157.48
771.945,157.48
775,157.48
778.055,157.48
781.109,157.48
784.164,157.48
787.219,157.48
790.273,157.48
793.328,157.48
796.383,157.48
799.437,157.48
802.492,157.48
805.547,157.48
808.601,157.48
811.656,157.48
814.711,157.48
817.765,157.48
820.82,157.48
823.875,157.48
826.929,157.48
829.984,157.48
833.039,157.48
836.093,314.961
839.148,314.961
842.203,314.961
845.257,314.961
848.312,314.961
851.367,472.441
854.421,629.921
857.476,787.402
860.531,1102.36
863.585,1259.84
866.64,1259.84
869.695,1102.36
872.749,1102.36
875.804,944.882
878.859,944.882
881.913,944.882
884.968,1102.36
888.023,1259.84
891.077,1732.28
894.132,2204.72
897.186,2992.13
900.241,3937.01
903.296,4881.89
906.35,6614.17
909.405,9921.26
912.46,15118.1
915.514,18425.2
918.569,22362.2
921.624,18425.2
924.678,15905.5
927.733,10866.1
930.788,6771.65
933.842,4409.45
936.897,2992.13
939.952,2047.24
943.006,1417.32
946.061,944.882
949.116,787.402
952.17,472.441
955.225,314.961
958.28,314.961
961.334,157.48
964.389,157.48
967.444,157.48
970.498,157.48
973.553,157.48
976.608,157.48
979.662,157.48
982.717,157.48
985.772,157.48
988.826,157.48
991.881,157.48
994.936,157.48
997.99,157.48
1001.05,157.48
1004.1,157.48
1007.15,157.48
1010.21,157.48
1013.26,157.48
1016.32,157.48
1019.37,157.48
1022.43,314.961
1025.48,314.961
1028.54,472.441
1031.59,629.921
1034.65,944.882
1037.7,1102.36
1040.76,1259.84
1043.81,1259.84
1046.86,1259.84
1049.92,1102.36
1052.97,944.882
1056.03,629.921
1059.08,472.441
1062.14,314.961
1065.19,314.961
1068.25,157.48
1071.3,157.48
1074.36,157.48
1077.41,157.48
1080.47,157.48
1083.52,157.48
1086.58,157.48
1089.63,157.48
1092.68,157.48
1095.74,157.48
1098.79,314.961
1101.85,314.961
1104.9,314.961
1107.96,314.961
1111.01,314.961
1114.07,314.961
1117.12,314.961
1120.18,314.961
1123.23,314.961
1126.29,314.961
1129.34,472.441
1132.4,472.441
1135.45,629.921
1138.5,787.402
1141.56,944.882
1144.61,1102.36
1147.67,1259.84
1150.72,1417.32
1153.78,1574.8
1156.83,1732.28
1159.89,1889.76
1162.94,2047.24
1166,2204.72
1169.05,2362.2
1172.11,2362.2
1175.16,2362.2
1178.22,2204.72
1181.27,1732.28
1184.32,1417.32
1187.38,1102.36
1190.43,787.402
1193.49,787.402
1196.54,629.921
1199.6,472.441
1202.65,472.441
1205.71,472.441
1208.76,472.441
1211.82,629.921
1214.87,787.402
1217.93,944.882
1220.98,944.882
1224.04,1102.36
1227.09,1102.36
1230.14,1102.36
1233.2,1102.36
1236.25,944.882
1239.31,944.882
1242.36,787.402
1245.42,629.921
1248.47,629.921
1251.53,472.441
1254.58,472.441
1257.64,314.961
1260.69,314.961
1263.75,314.961
1266.8,314.961
1269.86,314.961
1272.91,472.441
1275.96,629.921
1279.02,787.402
1282.07,787.402
1285.13,787.402
1288.18,944.882
1291.24,787.402
1294.29,787.402
1297.35,472.441
1300.4,314.961
1303.46,157.48
1306.51,157.48
1309.57,157.48
1312.62,157.48
1315.68,157.48
1318.73,157.48
1321.78,157.48
1324.84,157.48
1327.89,314.961
1330.95,472.441
1334,629.921
1337.06,944.882
1340.11,1259.84
1343.17,1417.32
1346.22,1574.8
1349.28,1732.28
1352.33,1732.28
1355.39,1574.8
1358.44,1417.32
1361.5,1259.84
1364.55,1102.36
1367.6,787.402
1370.66,787.402
1373.71,472.441
1376.77,472.441
1379.82,472.441
1382.88,314.961
1385.93,314.961
1388.99,314.961
1392.04,314.961
1395.1,314.961
1398.15,314.961
1401.21,472.441
1404.26,472.441
1407.32,472.441
1410.37,629.921
1413.42,629.921
1416.48,629.921
1419.53,629.921
1422.59,629.921
1425.64,472.441
1428.7,472.441
1431.75,314.961
1434.81,314.961
1437.86,314.961
1440.92,314.961
1443.97,314.961
1447.03,314.961
1450.08,314.961
1453.14,314.961
1456.19,314.961
1459.24,314.961
1462.3,314.961
1465.35,314.961
1468.41,314.961
1471.46,472.441
1474.52,472.441
1477.57,472.441
1480.63,472.441
1483.68,472.441
1486.74,472.441
1489.79,629.921
1492.85,629.921
1495.9,472.441
1498.95,472.441
1502.01,472.441
1505.06,472.441
1508.12,472.441
1511.17,472.441
1514.23,472.441
1517.28,472.441
1520.34,472.441
1523.39,472.441
1526.45,314.961
1529.5,314.961
1532.56,314.961
1535.61,314.961
1538.67,314.961
1541.72,314.961
1544.77,314.961
1547.83,314.961
1550.88,314.961
1553.94,472.441
1556.99,472.441
1560.05,472.441
1563.1,629.921
1566.16,629.921
1569.21,629.921
1572.27,629.921
1575.32,787.402
1578.38,787.402
1581.43,629.921
1584.49,629.921
1587.54,629.921
1590.59,472.441
1593.65,472.441
1596.7,472.441
1599.76,629.921
1602.81,629.921
1605.87,629.921
1608.92,629.921
1611.98,787.402
1615.03,787.402
1618.09,629.921
1621.14,472.441
1624.2,314.961
1627.25,314.961
1630.31,157.48
1633.36,157.48
1636.41,157.48
1639.47,157.48
1642.52,157.48
1645.58,157.48
1648.63,157.48
1651.69,157.48
1654.74,157.48
1657.8,157.48
1660.85,157.48
1663.91,157.48
1666.96,157.48
1670.02,157.48
1673.07,157.48
1676.13,157.48
1679.18,314.961
1682.23,314.961
1685.29,314.961
1688.34,314.961
1691.4,314.961
1694.45,314.961
1697.51,314.961
1700.56,314.961
1703.62,314.961
1706.67,472.441
1709.73,472.441
1712.78,472.441
1715.84,472.441
1718.89,472.441
1721.95,472.441
1725,472.441
1728.05,472.441
1731.11,472.441
1734.16,472.441
1737.22,472.441
1740.27,472.441
1743.33,472.441
1746.38,472.441
1749.44,472.441
1752.49,472.441
1755.55,472.441
1758.6,472.441
1761.66,472.441
1764.71,472.441
1767.77,472.441
1770.82,472.441
1773.87,472.441
1776.93,472.441
1779.98,472.441
1783.04,472.441
1786.09,472.441
1789.15,472.441
1792.2,472.441
1795.26,314.961
1798.31,314.961
1801.37,314.961
1804.42,314.961
1807.48,314.961
1810.53,314.961
1813.59,472.441
1816.64,314.961
1819.69,314.961
1822.75,314.961
1825.8,314.961
1828.86,314.961
1831.91,314.961
1834.97,314.961
1838.02,314.961
1841.08,314.961
1844.13,314.961
1847.19,314.961
1850.24,314.961
1853.3,157.48
1856.35,157.48
1859.41,157.48
1862.46,157.48
1865.51,157.48
1868.57,157.48
1871.62,157.48
1874.68,157.48
1877.73,157.48
1880.79,157.48
1883.84,157.48
1886.9,157.48
1889.95,157.48
1893.01,157.48
1896.06,157.48
1899.12,157.48
1902.17,157.48
1905.23,157.48
1908.28,157.48
1911.33,157.48
1914.39,157.48
1917.44,157.48
1920.5,157.48
1923.55,157.48
1926.61,157.48
1929.66,157.48
1932.72,157.48
1935.77,157.48
1938.83,157.48
1941.88,157.48
1944.94,157.48
1947.99,157.48
1951.05,157.48
1954.1,157.48
1957.15,314.961
1960.21,314.961
1963.26,314.961
1966.32,314.961
1969.37,314.961
1972.43,314.961
1975.48,314.961
1978.54,314.961
1981.59,314.961
1984.65,314.961
1987.7,314.961
1990.76,314.961
1993.81,314.961
1996.86,314.961
1999.92,314.961
2002.97,314.961
2006.03,314.961
2009.08,314.961
2012.14,314.961
2015.19,314.961
2018.25,314.961
2021.3,314.961
2024.36,314.961
2027.41,472.441
2030.47,472.441
2033.52,472.441
2036.58,472.441
2039.63,472.441
2042.68,472.441
2045.74,472.441
2048.79,472.441
2051.85,472.441
2054.9,472.441
2057.96,472.441
2061.01,472.441
2064.07,472.441
2067.12,472.441
2070.18,472.441
2073.23,314.961
2076.29,314.961
2079.34,314.961
2082.4,314.961
2085.45,314.961
2088.5,314.961
2091.56,314.961
2094.61,314.961
2097.67,314.961
2100.72,314.961
2103.78,314.961
2106.83,314.961
2109.89,314.961
2112.94,314.961
2116,314.961
2119.05,314.961
2122.11,314.961
2125.16,314.961
2128.22,314.961
2131.27,314.961
2134.32,314.961
2137.38,314.961
2140.43,314.961
2143.49,314.961
2146.54,314.961
2149.6,157.48
2152.65,157.48
2155.71,157.48
2158.76,157.48
2161.82,157.48
2164.87,157.48
2167.93,157.48
2170.98,157.48
2174.04,157.48
2177.09,157.48
2180.14,157.48
2183.2,157.48
2186.25,157.48
2189.31,157.48
2192.36,157.48
2195.42,157.48
2198.47,157.48
2201.53,157.48
2204.58,157.48
2207.64,157.48
2210.69,157.48
2213.75,157.48
2216.8,157.48
2219.86,314.961
2222.91,314.961
2225.96,314.961
2229.02,314.961
2232.07,314.961
2235.13,157.48
2238.18,157.48
2241.24,157.48
2244.29,157.48
2247.35,314.961
2250.4,314.961
2253.46,314.961
2256.51,314.961
2259.57,314.961
2262.62,157.48
2265.68,157.48
2268.73,157.48
2271.78,157.48
2274.84,314.961
2277.89,314.961
2280.95,314.961
2284,314.961
2287.06,314.961
2290.11,314.961
