,GP550R
RamanShit,Intensity
255.396,112.971
258.273,188.285
261.151,213.389
264.029,238.494
266.906,213.389
269.784,188.285
272.662,163.18
275.54,138.075
278.417,138.075
281.295,163.18
284.173,213.389
287.05,238.494
289.928,263.598
292.806,288.703
295.683,364.017
298.561,464.435
301.439,514.644
304.317,539.749
307.194,514.644
310.072,489.54
312.95,439.331
315.827,414.226
318.705,414.226
321.583,414.226
324.46,389.121
327.338,414.226
330.216,439.331
333.094,439.331
335.971,439.331
338.849,439.331
341.727,414.226
344.604,414.226
347.482,414.226
350.36,414.226
353.237,389.121
356.115,389.121
358.993,389.121
361.871,389.121
364.748,389.121
367.626,389.121
370.504,364.017
373.381,338.912
376.259,313.808
379.137,288.703
382.014,288.703
384.892,313.808
387.77,338.912
390.647,338.912
393.525,338.912
396.403,338.912
399.281,238.494
402.158,163.18
405.036,163.18
407.914,138.075
410.791,112.971
413.669,138.075
416.547,138.075
419.424,163.18
422.302,188.285
425.18,213.389
428.058,238.494
430.935,288.703
433.813,364.017
436.691,439.331
439.568,464.435
442.446,489.54
445.324,489.54
448.201,489.54
451.079,514.644
453.957,464.435
456.835,389.121
459.712,263.598
462.59,163.18
465.468,138.075
468.345,138.075
471.223,138.075
474.101,112.971
476.978,138.075
479.856,163.18
482.734,213.389
485.612,313.808
488.489,414.226
491.367,514.644
494.245,615.063
497.122,640.167
500,640.167
502.878,640.167
505.755,640.167
508.633,690.377
511.511,715.481
514.388,715.481
517.266,740.586
520.144,715.481
523.022,690.377
525.899,690.377
528.777,665.272
531.655,690.377
534.532,690.377
537.41,715.481
540.288,715.481
543.165,690.377
546.043,690.377
548.921,690.377
551.799,665.272
554.676,615.063
557.554,589.958
560.432,539.749
563.309,464.435
566.187,439.331
569.065,414.226
571.942,389.121
574.82,364.017
577.698,338.912
580.576,338.912
583.453,364.017
586.331,364.017
589.209,364.017
592.086,414.226
594.964,313.808
597.842,238.494
600.719,213.389
603.597,188.285
606.475,188.285
609.353,188.285
612.23,188.285
615.108,138.075
617.986,87.8661
620.863,87.8661
623.741,87.8661
626.619,87.8661
629.496,87.8661
632.374,112.971
635.252,163.18
638.129,313.808
641.007,439.331
643.885,464.435
646.763,464.435
649.64,439.331
652.518,364.017
655.396,263.598
658.273,238.494
661.151,238.494
664.029,188.285
666.906,138.075
669.784,138.075
672.662,138.075
675.54,188.285
678.417,213.389
681.295,213.389
684.173,263.598
687.05,338.912
689.928,338.912
692.806,414.226
695.683,489.54
698.561,539.749
701.439,665.272
704.317,815.9
707.194,916.318
710.072,966.527
712.95,966.527
715.827,966.527
718.705,916.318
721.583,790.795
724.46,665.272
727.338,589.958
730.216,564.854
733.094,564.854
735.971,564.854
738.849,564.854
741.727,539.749
744.604,489.54
747.482,414.226
750.36,364.017
753.237,364.017
756.115,338.912
758.993,313.808
761.871,263.598
764.748,188.285
767.626,163.18
770.504,138.075
773.381,138.075
776.259,112.971
779.137,138.075
782.014,163.18
784.892,163.18
787.77,188.285
790.647,188.285
793.525,163.18
796.403,112.971
799.281,138.075
802.158,138.075
805.036,163.18
807.914,188.285
810.791,238.494
813.669,313.808
816.547,364.017
819.424,389.121
822.302,439.331
825.18,464.435
828.058,464.435
830.935,514.644
833.813,464.435
836.691,464.435
839.568,414.226
842.446,364.017
845.324,338.912
848.201,313.808
851.079,288.703
853.957,263.598
856.835,263.598
859.712,263.598
862.59,313.808
865.468,364.017
868.345,464.435
871.223,539.749
874.101,589.958
876.978,539.749
879.856,539.749
882.734,514.644
885.612,389.121
888.489,238.494
891.367,163.18
894.245,112.971
897.122,138.075
900,138.075
902.878,163.18
905.755,163.18
908.633,238.494
911.511,389.121
914.388,489.54
917.266,589.958
920.144,640.167
923.022,715.481
925.899,715.481
928.777,715.481
931.655,715.481
934.532,690.377
937.41,665.272
940.288,665.272
943.165,665.272
946.043,640.167
948.921,640.167
951.799,665.272
954.676,715.481
957.554,765.69
960.432,891.213
963.309,841.004
966.187,841.004
969.065,866.109
971.942,891.213
974.82,740.586
977.698,715.481
980.576,640.167
983.453,464.435
986.331,364.017
989.209,313.808
992.086,263.598
994.964,213.389
997.842,188.285
1000.72,188.285
1003.6,188.285
1006.47,188.285
1009.35,213.389
1012.23,213.389
1015.11,213.389
1017.99,213.389
1020.86,188.285
1023.74,188.285
1026.62,188.285
1029.5,188.285
1032.37,188.285
1035.25,188.285
1038.13,188.285
1041.01,188.285
1043.88,188.285
1046.76,213.389
1049.64,238.494
1052.52,288.703
1055.4,338.912
1058.27,338.912
1061.15,338.912
1064.03,313.808
1066.91,263.598
1069.78,263.598
1072.66,213.389
1075.54,188.285
1078.42,163.18
1081.29,163.18
1084.17,163.18
1087.05,163.18
1089.93,213.389
1092.81,263.598
1095.68,338.912
1098.56,338.912
1101.44,338.912
1104.32,338.912
1107.19,338.912
1110.07,338.912
1112.95,313.808
1115.83,213.389
1118.71,163.18
1121.58,112.971
1124.46,163.18
1127.34,213.389
1130.22,238.494
1133.09,288.703
1135.97,313.808
1138.85,313.808
1141.73,338.912
1144.6,288.703
1147.48,213.389
1150.36,188.285
1153.24,188.285
1156.12,188.285
1158.99,163.18
1161.87,188.285
1164.75,188.285
1167.63,188.285
1170.5,188.285
1173.38,263.598
1176.26,389.121
1179.14,464.435
1182.01,615.063
1184.89,790.795
1187.77,1016.74
1190.65,1242.68
1193.53,1343.1
1196.4,1418.41
1199.28,1443.51
1202.16,1418.41
1205.04,1368.2
1207.91,1192.47
1210.79,966.527
1213.67,815.9
1216.55,690.377
1219.42,539.749
1222.3,464.435
1225.18,414.226
1228.06,364.017
1230.94,364.017
1233.81,313.808
1236.69,288.703
1239.57,263.598
1242.45,263.598
1245.32,213.389
1248.2,188.285
1251.08,138.075
1253.96,138.075
1256.83,188.285
1259.71,213.389
1262.59,263.598
1265.47,313.808
1268.35,364.017
1271.22,439.331
1274.1,514.644
1276.98,539.749
1279.86,589.958
1282.73,690.377
1285.61,790.795
1288.49,841.004
1291.37,941.423
1294.24,991.632
1297.12,991.632
1300,966.527
1302.88,916.318
1305.76,815.9
1308.63,740.586
1311.51,665.272
1314.39,640.167
1317.27,539.749
1320.14,439.331
1323.02,439.331
1325.9,439.331
1328.78,439.331
1331.65,439.331
1334.53,464.435
1337.41,514.644
1340.29,589.958
1343.17,640.167
1346.04,715.481
1348.92,765.69
1351.8,790.795
1354.68,790.795
1357.55,790.795
1360.43,740.586
1363.31,665.272
1366.19,589.958
1369.06,539.749
1371.94,539.749
1374.82,464.435
1377.7,364.017
1380.58,288.703
1383.45,213.389
1386.33,163.18
1389.21,163.18
1392.09,112.971
1394.96,87.8661
1397.84,112.971
1400.72,138.075
1403.6,213.389
1406.47,313.808
1409.35,414.226
1412.23,539.749
1415.11,765.69
1417.99,1066.95
1420.86,1368.2
1423.74,1719.67
1426.62,2422.59
1429.5,3200.84
1432.37,3702.93
1435.25,4205.02
1438.13,4707.11
1441.01,4983.26
1443.88,5083.68
1446.76,5159
1449.64,4933.05
1452.52,4732.22
1455.4,4506.28
1458.27,4079.5
1461.15,3677.82
1464.03,3451.88
1466.91,3251.05
1469.78,2849.37
1472.66,2347.28
1475.54,1945.61
1478.42,1569.04
1481.29,1167.36
1484.17,765.69
1487.05,489.54
1489.93,313.808
1492.81,213.389
1495.68,163.18
1498.56,138.075
1501.44,112.971
1504.32,87.8661
1507.19,87.8661
1510.07,87.8661
1512.95,87.8661
1515.83,87.8661
1518.71,87.8661
1521.58,87.8661
1524.46,87.8661
1527.34,87.8661
1530.22,87.8661
1533.09,87.8661
1535.97,87.8661
1538.85,87.8661
1541.73,87.8661
1544.6,87.8661
1547.48,87.8661
1550.36,87.8661
1553.24,87.8661
1556.12,87.8661
1558.99,112.971
1561.87,138.075
1564.75,138.075
1567.63,138.075
1570.5,138.075
1573.38,138.075
1576.26,188.285
1579.14,213.389
1582.01,238.494
1584.89,263.598
1587.77,313.808
1590.65,338.912
1593.53,464.435
1596.4,564.854
1599.28,640.167
1602.16,715.481
1605.04,815.9
1607.91,891.213
1610.79,941.423
1613.67,966.527
1616.55,991.632
1619.42,1066.95
1622.3,1167.36
1625.18,1242.68
1628.06,1368.2
1630.94,1594.14
1633.81,1820.08
1636.69,2071.13
1639.57,2372.38
1642.45,2698.74
1645.32,2949.79
1648.2,3025.1
1651.08,3075.31
1653.96,3025.1
1656.83,3000
1659.71,2899.58
1662.59,2623.43
1665.47,2322.18
1668.35,2071.13
1671.22,1794.98
1674.1,1443.51
1676.98,1016.74
1679.86,765.69
1682.73,589.958
1685.61,389.121
1688.49,263.598
1691.37,213.389
1694.24,213.389
1697.12,188.285
1700,188.285
1702.88,213.389
1705.76,263.598
1708.63,263.598
1711.51,313.808
1714.39,338.912
1717.27,364.017
1720.14,364.017
1723.02,389.121
1725.9,414.226
1728.78,439.331
1731.65,489.54
1734.53,514.644
1737.41,514.644
1740.29,514.644
1743.17,489.54
1746.04,439.331
1748.92,338.912
1751.8,263.598
1754.68,188.285
1757.55,138.075
1760.43,87.8661
1763.31,87.8661
1766.19,87.8661
1769.06,87.8661
1771.94,87.8661
1774.82,87.8661
1777.7,87.8661
1780.58,112.971
1783.45,112.971
1786.33,112.971
1789.21,112.971
1792.09,112.971
1794.96,87.8661
1797.84,87.8661
1800.72,87.8661
1803.6,87.8661
1806.47,87.8661
1809.35,87.8661
1812.23,87.8661
1815.11,87.8661
1817.99,87.8661
1820.86,87.8661
1823.74,87.8661
1826.62,112.971
1829.5,138.075
1832.37,138.075
1835.25,138.075
1838.13,138.075
1841.01,138.075
1843.88,87.8661
1846.76,87.8661
1849.64,87.8661
1852.52,87.8661
1855.4,87.8661
1858.27,87.8661
1861.15,87.8661
1864.03,87.8661
1866.91,87.8661
1869.78,112.971
1872.66,138.075
1875.54,163.18
1878.42,163.18
1881.29,138.075
1884.17,112.971
1887.05,112.971
1889.93,112.971
1892.81,112.971
1895.68,112.971
1898.56,112.971
1901.44,112.971
1904.32,112.971
1907.19,112.971
1910.07,112.971
1912.95,112.971
1915.83,112.971
1918.71,112.971
1921.58,87.8661
1924.46,87.8661
1927.34,87.8661
1930.22,112.971
1933.09,112.971
1935.97,112.971
1938.85,112.971
1941.73,87.8661
1944.6,87.8661
1947.48,87.8661
1950.36,87.8661
1953.24,87.8661
1956.12,87.8661
1958.99,87.8661
1961.87,87.8661
1964.75,87.8661
1967.63,87.8661
1970.5,87.8661
1973.38,87.8661
1976.26,87.8661
1979.14,112.971
1982.01,112.971
1984.89,112.971
1987.77,112.971
1990.65,112.971
1993.53,138.075
1996.4,138.075
1999.28,138.075
2002.16,138.075
2005.04,138.075
2007.91,138.075
2010.79,138.075
2013.67,112.971
2016.55,112.971
2019.42,87.8661
2022.3,87.8661
2025.18,87.8661
2028.06,87.8661
2030.94,87.8661
2033.81,87.8661
2036.69,112.971
2039.57,112.971
2042.45,112.971
2045.32,112.971
2048.2,87.8661
2051.08,87.8661
2053.96,87.8661
2056.83,112.971
2059.71,112.971
2062.59,112.971
2065.47,112.971
2068.35,112.971
2071.22,112.971
2074.1,87.8661
2076.98,87.8661
2079.86,87.8661
2082.73,87.8661
2085.61,87.8661
2088.49,87.8661
2091.37,112.971
2094.24,138.075
2097.12,138.075
2100,138.075
2102.88,138.075
2105.76,138.075
2108.63,112.971
2111.51,138.075
2114.39,138.075
2117.27,138.075
2120.14,138.075
2123.02,112.971
2125.9,87.8661
2128.78,112.971
2131.65,138.075
2134.53,138.075
2137.41,138.075
2140.29,138.075
2143.17,138.075
2146.04,112.971
2148.92,112.971
2151.8,112.971
2154.68,112.971
2157.55,138.075
2160.43,138.075
2163.31,138.075
2166.19,138.075
2169.06,138.075
2171.94,112.971
2174.82,112.971
2177.7,112.971
2180.58,112.971
2183.45,87.8661
2186.33,112.971
2189.21,138.075
2192.09,138.075
2194.96,138.075
2197.84,138.075
2200.72,112.971
2203.6,112.971
2206.47,112.971
2209.35,138.075
2212.23,163.18
2215.11,163.18
2217.99,163.18
2220.86,138.075
2223.74,112.971
2226.62,112.971
2229.5,112.971
2232.37,112.971
2235.25,112.971
2238.13,112.971
2241.01,112.971
2243.88,112.971
2246.76,87.8661
2249.64,87.8661
2252.52,87.8661
2255.4,87.8661
2258.27,87.8661
2261.15,112.971
2264.03,112.971
2266.91,112.971
2269.78,112.971
2272.66,112.971
2275.54,87.8661
2278.42,87.8661
2281.29,112.971
2284.17,138.075
2287.05,138.075
2289.93,138.075
2292.81,138.075
2295.68,138.075
2298.56,138.075
2301.44,138.075
2304.32,112.971
2307.19,87.8661
2310.07,87.8661
2312.95,87.8661
2315.83,87.8661
2318.71,87.8661
2321.58,87.8661
2324.46,87.8661
2327.34,87.8661
2330.22,87.8661
2333.09,87.8661
