,GP550R
RamanShit,Intensity
255.636,17.7165
258.696,104.331
261.755,147.638
264.815,190.945
267.874,234.252
270.934,277.559
273.994,277.559
277.053,277.559
280.113,277.559
283.172,277.559
286.232,277.559
289.291,234.252
292.351,190.945
295.411,147.638
298.47,104.331
301.53,104.331
304.589,61.0236
307.649,61.0236
310.709,61.0236
313.768,61.0236
316.828,61.0236
319.887,61.0236
322.947,61.0236
326.006,104.331
329.066,104.331
332.126,147.638
335.185,147.638
338.245,190.945
341.304,190.945
344.364,190.945
347.424,190.945
350.483,190.945
353.543,190.945
356.602,190.945
359.662,147.638
362.721,147.638
365.781,147.638
368.841,147.638
371.9,104.331
374.96,104.331
378.019,104.331
381.079,104.331
384.138,104.331
387.198,104.331
390.258,61.0236
393.317,61.0236
396.377,61.0236
399.436,61.0236
402.496,61.0236
405.556,61.0236
408.615,61.0236
411.675,61.0236
414.734,61.0236
417.794,61.0236
420.853,104.331
423.913,104.331
426.973,104.331
430.032,104.331
433.092,104.331
436.151,104.331
439.211,104.331
442.271,104.331
445.33,104.331
448.39,104.331
451.449,104.331
454.509,104.331
457.568,104.331
460.628,104.331
463.688,104.331
466.747,104.331
469.807,104.331
472.866,61.0236
475.926,61.0236
478.986,61.0236
482.045,61.0236
485.105,61.0236
488.164,61.0236
491.224,104.331
494.283,104.331
497.343,104.331
500.403,104.331
503.462,104.331
506.522,104.331
509.581,104.331
512.641,104.331
515.7,61.0236
518.76,61.0236
521.82,61.0236
524.879,61.0236
527.939,61.0236
530.998,61.0236
534.058,61.0236
537.118,61.0236
540.177,61.0236
543.237,61.0236
546.296,61.0236
549.356,61.0236
552.415,61.0236
555.475,61.0236
558.535,61.0236
561.594,61.0236
564.654,61.0236
567.713,61.0236
570.773,61.0236
573.833,61.0236
576.892,61.0236
579.952,61.0236
583.011,61.0236
586.071,61.0236
589.13,61.0236
592.19,61.0236
595.25,61.0236
598.309,61.0236
601.369,61.0236
604.428,61.0236
607.488,17.7165
610.548,17.7165
613.607,17.7165
616.667,17.7165
619.726,17.7165
622.786,17.7165
625.845,17.7165
628.905,17.7165
631.965,17.7165
635.024,61.0236
638.084,61.0236
641.143,61.0236
644.203,61.0236
647.262,61.0236
650.322,17.7165
653.382,17.7165
656.441,17.7165
659.501,17.7165
662.56,17.7165
665.62,17.7165
668.68,17.7165
671.739,17.7165
674.799,17.7165
677.858,17.7165
680.918,61.0236
683.977,61.0236
687.037,61.0236
690.097,61.0236
693.156,61.0236
696.216,61.0236
699.275,61.0236
702.335,104.331
705.395,104.331
708.454,104.331
711.514,104.331
714.573,147.638
717.633,147.638
720.692,147.638
723.752,147.638
726.812,147.638
729.871,147.638
732.931,147.638
735.99,147.638
739.05,147.638
742.11,147.638
745.169,147.638
748.229,190.945
751.288,190.945
754.348,190.945
757.407,190.945
760.467,190.945
763.527,190.945
766.586,190.945
769.646,190.945
772.705,190.945
775.765,190.945
778.824,147.638
781.884,147.638
784.944,104.331
788.003,104.331
791.063,104.331
794.122,61.0236
797.182,61.0236
800.242,61.0236
803.301,61.0236
806.361,17.7165
809.42,17.7165
812.48,17.7165
815.539,17.7165
818.599,17.7165
821.659,17.7165
824.718,17.7165
827.778,17.7165
830.837,17.7165
833.897,17.7165
836.957,17.7165
840.016,17.7165
843.076,17.7165
846.135,17.7165
849.195,17.7165
852.254,17.7165
855.314,17.7165
858.374,17.7165
861.433,17.7165
864.493,17.7165
867.552,17.7165
870.612,17.7165
873.671,17.7165
876.731,17.7165
879.791,17.7165
882.85,17.7165
885.91,17.7165
888.969,17.7165
892.029,17.7165
895.089,17.7165
898.148,17.7165
901.208,17.7165
904.267,17.7165
907.327,17.7165
910.386,17.7165
913.446,17.7165
916.506,17.7165
919.565,17.7165
922.625,17.7165
925.684,17.7165
928.744,17.7165
931.804,17.7165
934.863,17.7165
937.923,17.7165
940.982,17.7165
944.042,17.7165
947.101,17.7165
950.161,17.7165
953.221,17.7165
956.28,17.7165
959.34,17.7165
962.399,17.7165
965.459,17.7165
968.519,17.7165
971.578,17.7165
974.638,17.7165
977.697,17.7165
980.757,17.7165
983.816,17.7165
986.876,17.7165
989.936,17.7165
992.995,17.7165
996.055,17.7165
999.114,17.7165
1002.17,17.7165
1005.23,17.7165
1008.29,17.7165
1011.35,17.7165
1014.41,17.7165
1017.47,17.7165
1020.53,17.7165
1023.59,17.7165
1026.65,17.7165
1029.71,17.7165
1032.77,17.7165
1035.83,17.7165
1038.89,17.7165
1041.95,17.7165
1045.01,17.7165
1048.07,17.7165
1051.13,17.7165
1054.19,17.7165
1057.25,17.7165
1060.31,17.7165
1063.37,17.7165
1066.43,17.7165
1069.48,17.7165
1072.54,17.7165
1075.6,17.7165
1078.66,17.7165
1081.72,17.7165
1084.78,17.7165
1087.84,17.7165
1090.9,17.7165
1093.96,17.7165
1097.02,17.7165
1100.08,17.7165
1103.14,17.7165
1106.2,17.7165
1109.26,17.7165
1112.32,17.7165
1115.38,17.7165
1118.44,17.7165
1121.5,17.7165
1124.56,17.7165
1127.62,17.7165
1130.68,17.7165
1133.74,17.7165
1136.8,17.7165
1139.86,61.0236
1142.91,61.0236
1145.97,61.0236
1149.03,61.0236
1152.09,61.0236
1155.15,61.0236
1158.21,17.7165
1161.27,17.7165
1164.33,61.0236
1167.39,104.331
1170.45,234.252
1173.51,537.402
1176.57,970.472
1179.63,1576.77
1182.69,2312.99
1185.75,3352.36
1188.81,4521.65
1191.87,5517.72
1194.93,6470.47
1197.99,7250
1201.05,7812.99
1204.11,8029.53
1207.17,8116.14
1210.23,7986.22
1213.29,7812.99
1216.34,7379.92
1219.4,6860.24
1222.46,6253.94
1225.52,5690.94
1228.58,5127.95
1231.64,4694.88
1234.7,4348.43
1237.76,4045.28
1240.82,3828.74
1243.88,3655.51
1246.94,3395.67
1250,3135.83
1253.06,2919.29
1256.12,2572.83
1259.18,2139.76
1262.24,1750
1265.3,1446.85
1268.36,1273.62
1271.42,1273.62
1274.48,1360.24
1277.54,1576.77
1280.6,2096.46
1283.66,2919.29
1286.71,4045.28
1289.77,5387.8
1292.83,6773.62
1295.89,8029.53
1298.95,8809.06
1302.01,9112.2
1305.07,9458.66
1308.13,8982.28
1311.19,8765.75
1314.25,8116.14
1317.31,7379.92
1320.37,6600.39
1323.43,5820.87
1326.49,5084.65
1329.55,4391.73
1332.61,3742.13
1335.67,3179.13
1338.73,2659.45
1341.79,2399.61
1344.85,2269.69
1347.91,2399.61
1350.97,2486.22
1354.03,2572.83
1357.09,2616.14
1360.14,2616.14
1363.2,2572.83
1366.26,2529.53
1369.32,2269.69
1372.38,1836.61
1375.44,1490.16
1378.5,1100.39
1381.56,667.323
1384.62,450.787
1387.68,320.866
1390.74,450.787
1393.8,537.402
1396.86,840.551
1399.92,1360.24
1402.98,2096.46
1406.04,2919.29
1409.1,3915.35
1412.16,4998.03
1415.22,6037.4
1418.28,7076.77
1421.34,7899.61
1424.4,8549.21
1427.46,9068.9
1430.52,9285.43
1433.57,9285.43
1436.63,9242.13
1439.69,9198.82
1442.75,9025.59
1445.81,8809.06
1448.87,8592.52
1451.93,8289.37
1454.99,7942.91
1458.05,7553.15
1461.11,7076.77
1464.17,6557.09
1467.23,5994.09
1470.29,5431.1
1473.35,4911.42
1476.41,4348.43
1479.47,3828.74
1482.53,3395.67
1485.59,3005.91
1488.65,2616.14
1491.71,2312.99
1494.77,2226.38
1497.83,2139.76
1500.89,2269.69
1503.95,2399.61
1507,2789.37
1510.06,3265.75
1513.12,3828.74
1516.18,4478.35
1519.24,5257.87
1522.3,6037.4
1525.36,6773.62
1528.42,7379.92
1531.48,7856.3
1534.54,8072.83
1537.6,8202.76
1540.66,8029.53
1543.72,7812.99
1546.78,7206.69
1549.84,6340.55
1552.9,5344.49
1555.96,4435.04
1559.02,3482.28
1562.08,2616.14
1565.14,1879.92
1568.2,1230.31
1571.26,797.244
1574.32,450.787
1577.38,190.945
1580.43,17.7165
1583.49,-25.5906
1586.55,-25.5906
1589.61,-25.5906
1592.67,17.7165
1595.73,61.0236
1598.79,104.331
1601.85,190.945
1604.91,407.48
1607.97,624.016
1611.03,927.165
1614.09,1316.93
1617.15,1663.39
1620.21,2009.84
1623.27,2442.91
1626.33,2875.98
1629.39,3309.06
1632.45,3742.13
1635.51,4175.2
1638.57,4521.65
1641.63,4911.42
1644.69,5171.26
1647.75,5431.1
1650.81,5690.94
1653.86,5907.48
1656.92,6080.71
1659.98,6297.24
1663.04,6470.47
1666.1,6730.31
1669.16,7120.08
1672.22,7553.15
1675.28,7856.3
1678.34,8159.45
1681.4,8462.6
1684.46,8592.52
1687.52,8679.13
1690.58,8549.21
1693.64,8375.98
1696.7,7942.91
1699.76,7379.92
1702.82,6730.31
1705.88,6037.4
1708.94,5344.49
1712,4694.88
1715.06,4088.58
1718.12,3482.28
1721.18,2962.6
1724.24,2486.22
1727.29,2009.84
1730.35,1533.46
1733.41,1143.7
1736.47,840.551
1739.53,580.709
1742.59,320.866
1745.65,190.945
1748.71,147.638
1751.77,190.945
1754.83,234.252
1757.89,320.866
1760.95,580.709
1764.01,927.165
1767.07,1360.24
1770.13,1836.61
1773.19,2312.99
1776.25,2789.37
1779.31,3265.75
1782.37,3698.82
1785.43,4088.58
1788.49,4435.04
1791.55,4738.19
1794.61,4954.72
1797.67,5084.65
1800.72,5171.26
1803.78,5214.57
1806.84,5171.26
1809.9,5084.65
1812.96,4911.42
1816.02,4521.65
1819.08,4001.97
1822.14,3438.98
1825.2,2832.68
1828.26,2226.38
1831.32,1706.69
1834.38,1230.31
1837.44,840.551
1840.5,537.402
1843.56,364.173
1846.62,190.945
1849.68,147.638
1852.74,61.0236
1855.8,61.0236
1858.86,61.0236
1861.92,61.0236
1864.98,61.0236
1868.04,104.331
1871.1,104.331
1874.15,147.638
1877.21,147.638
1880.27,147.638
1883.33,190.945
1886.39,147.638
1889.45,147.638
1892.51,147.638
1895.57,104.331
1898.63,61.0236
1901.69,61.0236
1904.75,17.7165
1907.81,17.7165
1910.87,17.7165
1913.93,17.7165
1916.99,17.7165
1920.05,17.7165
1923.11,17.7165
1926.17,17.7165
1929.23,17.7165
1932.29,17.7165
1935.35,17.7165
1938.41,17.7165
1941.47,17.7165
1944.52,17.7165
1947.58,17.7165
1950.64,17.7165
1953.7,17.7165
1956.76,17.7165
1959.82,17.7165
1962.88,17.7165
1965.94,17.7165
1969,17.7165
1972.06,17.7165
1975.12,17.7165
1978.18,17.7165
1981.24,17.7165
1984.3,17.7165
1987.36,17.7165
1990.42,17.7165
1993.48,17.7165
1996.54,17.7165
1999.6,17.7165
2002.66,17.7165
2005.72,17.7165
2008.78,17.7165
2011.84,17.7165
2014.9,17.7165
2017.95,61.0236
2021.01,61.0236
2024.07,61.0236
2027.13,61.0236
2030.19,61.0236
2033.25,61.0236
2036.31,61.0236
2039.37,17.7165
2042.43,17.7165
2045.49,17.7165
2048.55,17.7165
2051.61,17.7165
2054.67,61.0236
2057.73,61.0236
2060.79,17.7165
2063.85,17.7165
2066.91,17.7165
2069.97,17.7165
2073.03,17.7165
2076.09,17.7165
2079.15,17.7165
2082.21,17.7165
2085.27,17.7165
2088.33,17.7165
2091.38,17.7165
2094.44,17.7165
2097.5,61.0236
2100.56,61.0236
2103.62,61.0236
2106.68,61.0236
2109.74,61.0236
2112.8,61.0236
2115.86,61.0236
2118.92,61.0236
2121.98,61.0236
2125.04,61.0236
2128.1,61.0236
2131.16,61.0236
2134.22,61.0236
2137.28,61.0236
2140.34,61.0236
2143.4,61.0236
2146.46,61.0236
2149.52,61.0236
2152.58,61.0236
2155.64,61.0236
2158.7,61.0236
2161.76,61.0236
2164.81,61.0236
2167.87,61.0236
2170.93,61.0236
2173.99,61.0236
2177.05,61.0236
2180.11,61.0236
2183.17,61.0236
2186.23,61.0236
2189.29,61.0236
2192.35,61.0236
2195.41,61.0236
2198.47,61.0236
2201.53,61.0236
2204.59,61.0236
2207.65,61.0236
2210.71,61.0236
2213.77,61.0236
2216.83,61.0236
2219.89,61.0236
2222.95,61.0236
2226.01,61.0236
2229.07,104.331
2232.13,104.331
2235.19,104.331
2238.24,104.331
2241.3,104.331
2244.36,104.331
2247.42,104.331
2250.48,104.331
2253.54,104.331
2256.6,104.331
2259.66,104.331
2262.72,104.331
2265.78,104.331
2268.84,104.331
2271.9,147.638
2274.96,147.638
2278.02,147.638
2281.08,147.638
2284.14,147.638
2287.2,147.638
2290.26,147.638
