,GP550R
RamanShit,Intensity
258.828,294.118
261.878,568.627
264.928,843.137
267.978,1117.65
271.027,1117.65
274.077,843.137
277.127,843.137
280.177,843.137
283.226,843.137
286.276,1392.16
289.326,2215.69
292.376,3862.75
295.425,4960.78
298.475,5235.29
301.525,5235.29
304.575,5235.29
307.624,5509.8
310.674,5509.8
313.724,5784.31
316.774,6333.33
319.823,6607.84
322.873,6607.84
325.923,6333.33
328.973,6333.33
332.022,6058.82
335.072,6058.82
338.122,6058.82
341.172,5509.8
344.222,4137.25
347.271,2764.71
350.321,1666.67
353.371,1117.65
356.421,843.137
359.47,294.118
362.52,294.118
365.57,294.118
368.62,294.118
371.669,568.627
374.719,568.627
377.769,568.627
380.819,568.627
383.868,568.627
386.918,843.137
389.968,1117.65
393.018,2215.69
396.067,3039.22
399.117,3313.73
402.167,3313.73
405.217,3039.22
408.266,3039.22
411.316,3039.22
414.366,3039.22
417.416,3313.73
420.465,4686.27
423.515,7705.88
426.565,12372.5
429.615,22254.9
432.665,23352.9
435.714,14294.1
438.764,11000
441.814,5509.8
444.864,2490.2
447.913,1117.65
450.963,568.627
454.013,294.118
457.063,294.118
460.112,294.118
463.162,294.118
466.212,294.118
469.262,294.118
472.311,1117.65
475.361,2764.71
478.411,6333.33
481.461,9352.94
484.51,17313.7
487.56,18960.8
490.61,9352.94
493.66,7156.86
496.709,3862.75
499.759,2215.69
502.809,1941.18
505.859,1392.16
508.909,1117.65
511.958,843.137
515.008,843.137
518.058,843.137
521.108,1117.65
524.157,1941.18
527.207,3588.24
530.257,5509.8
533.307,8254.9
536.356,9627.45
539.406,11000
542.456,9627.45
545.506,9352.94
548.555,8529.41
551.605,7431.37
554.655,6882.35
557.705,6882.35
560.754,7156.86
563.804,7431.37
566.854,8803.92
569.904,11549
572.953,15666.7
576.003,22254.9
579.053,31039.2
582.103,35980.4
585.152,41470.6
588.202,35705.9
591.252,30215.7
594.302,20058.8
597.352,12647.1
600.401,7980.39
603.451,4960.78
606.501,3039.22
609.551,1941.18
612.6,1117.65
615.65,568.627
618.7,294.118
621.75,294.118
624.799,294.118
627.849,294.118
630.899,294.118
633.949,294.118
636.998,568.627
640.048,843.137
643.098,1117.65
646.148,1392.16
649.197,1941.18
652.247,2490.2
655.297,3039.22
658.347,3862.75
661.396,4411.76
664.446,4411.76
667.496,4411.76
670.546,3862.75
673.596,3039.22
676.645,2215.69
679.695,1392.16
682.745,1117.65
685.795,843.137
688.844,568.627
691.894,294.118
694.944,294.118
697.994,294.118
701.043,294.118
704.093,294.118
707.143,294.118
710.193,294.118
713.242,294.118
716.292,294.118
719.342,294.118
722.392,294.118
725.441,294.118
728.491,294.118
731.541,294.118
734.591,294.118
737.64,294.118
740.69,19.6078
743.74,19.6078
746.79,19.6078
749.839,19.6078
752.889,294.118
755.939,294.118
758.989,294.118
762.039,294.118
765.088,294.118
768.138,294.118
771.188,294.118
774.238,294.118
777.287,294.118
780.337,568.627
783.387,568.627
786.437,843.137
789.486,1117.65
792.536,1392.16
795.586,1392.16
798.636,1117.65
801.685,568.627
804.735,568.627
807.785,294.118
810.835,294.118
813.884,294.118
816.934,294.118
819.984,294.118
823.034,294.118
826.083,294.118
829.133,294.118
832.183,294.118
835.233,294.118
838.283,294.118
841.332,568.627
844.382,568.627
847.432,568.627
850.482,568.627
853.531,568.627
856.581,568.627
859.631,568.627
862.681,568.627
865.73,568.627
868.78,568.627
871.83,568.627
874.88,568.627
877.929,294.118
880.979,294.118
884.029,294.118
887.079,294.118
890.128,294.118
893.178,294.118
896.228,294.118
899.278,294.118
902.327,294.118
905.377,294.118
908.427,294.118
911.477,294.118
914.526,294.118
917.576,294.118
920.626,294.118
923.676,294.118
926.726,294.118
929.775,294.118
932.825,19.6078
935.875,19.6078
938.925,19.6078
941.974,19.6078
945.024,294.118
948.074,294.118
951.124,294.118
954.173,294.118
957.223,294.118
960.273,294.118
963.323,294.118
966.372,294.118
969.422,294.118
972.472,294.118
975.522,294.118
978.571,294.118
981.621,294.118
984.671,294.118
987.721,294.118
990.77,294.118
993.82,294.118
996.87,294.118
999.92,294.118
1002.97,294.118
1006.02,294.118
1009.07,568.627
1012.12,568.627
1015.17,294.118
1018.22,294.118
1021.27,294.118
1024.32,294.118
1027.37,294.118
1030.42,294.118
1033.47,568.627
1036.52,843.137
1039.57,1117.65
1042.62,1941.18
1045.67,3039.22
1048.72,4960.78
1051.77,8529.41
1054.82,15666.7
1057.87,25823.5
1060.91,32960.8
1063.96,43666.7
1067.01,30490.2
1070.06,24451
1073.11,14568.6
1076.16,8803.92
1079.21,5784.31
1082.26,4137.25
1085.31,3313.73
1088.36,3039.22
1091.41,2764.71
1094.46,2490.2
1097.51,1941.18
1100.56,1392.16
1103.61,843.137
1106.66,843.137
1109.71,843.137
1112.76,843.137
1115.81,843.137
1118.86,1117.65
1121.91,843.137
1124.96,568.627
1128.01,294.118
1131.06,294.118
1134.11,294.118
1137.16,294.118
1140.21,294.118
1143.26,294.118
1146.31,294.118
1149.36,294.118
1152.41,294.118
1155.46,294.118
1158.51,294.118
1161.56,294.118
1164.61,294.118
1167.66,294.118
1170.71,294.118
1173.76,294.118
1176.81,294.118
1179.86,294.118
1182.91,294.118
1185.96,294.118
1189,294.118
1192.05,294.118
1195.1,294.118
1198.15,294.118
1201.2,294.118
1204.25,294.118
1207.3,294.118
1210.35,294.118
1213.4,294.118
1216.45,294.118
1219.5,294.118
1222.55,294.118
1225.6,294.118
1228.65,294.118
1231.7,294.118
1234.75,294.118
1237.8,294.118
1240.85,294.118
1243.9,294.118
1246.95,294.118
1250,294.118
1253.05,294.118
1256.1,294.118
1259.15,294.118
1262.2,294.118
1265.25,294.118
1268.3,294.118
1271.35,294.118
1274.4,294.118
1277.45,294.118
1280.5,294.118
1283.55,294.118
1286.6,294.118
1289.65,294.118
1292.7,294.118
1295.75,294.118
1298.8,294.118
1301.85,294.118
1304.9,294.118
1307.95,294.118
1311,294.118
1314.04,294.118
1317.09,294.118
1320.14,294.118
1323.19,294.118
1326.24,294.118
1329.29,294.118
1332.34,294.118
1335.39,294.118
1338.44,294.118
1341.49,294.118
1344.54,294.118
1347.59,294.118
1350.64,294.118
1353.69,294.118
1356.74,294.118
1359.79,294.118
1362.84,294.118
1365.89,294.118
1368.94,294.118
1371.99,294.118
1375.04,294.118
1378.09,294.118
1381.14,294.118
1384.19,294.118
1387.24,294.118
1390.29,294.118
1393.34,294.118
1396.39,294.118
1399.44,294.118
1402.49,294.118
1405.54,294.118
1408.59,294.118
1411.64,294.118
1414.69,294.118
1417.74,294.118
1420.79,294.118
1423.84,294.118
1426.89,294.118
1429.94,294.118
1432.99,294.118
1436.04,294.118
1439.09,294.118
1442.13,294.118
1445.18,294.118
1448.23,294.118
1451.28,294.118
1454.33,294.118
1457.38,294.118
1460.43,294.118
1463.48,294.118
1466.53,294.118
1469.58,294.118
1472.63,294.118
1475.68,294.118
1478.73,294.118
1481.78,294.118
1484.83,294.118
1487.88,294.118
1490.93,294.118
1493.98,294.118
1497.03,294.118
1500.08,294.118
1503.13,294.118
1506.18,294.118
1509.23,294.118
1512.28,294.118
1515.33,294.118
1518.38,294.118
1521.43,294.118
1524.48,294.118
1527.53,294.118
1530.58,294.118
1533.63,294.118
1536.68,294.118
1539.73,294.118
1542.78,294.118
1545.83,294.118
1548.88,294.118
1551.93,294.118
1554.98,294.118
1558.03,568.627
1561.08,294.118
1564.13,294.118
1567.17,294.118
1570.22,294.118
1573.27,294.118
1576.32,294.118
1579.37,294.118
1582.42,294.118
1585.47,294.118
1588.52,294.118
1591.57,294.118
1594.62,294.118
1597.67,294.118
1600.72,294.118
1603.77,294.118
1606.82,294.118
1609.87,294.118
1612.92,294.118
1615.97,294.118
1619.02,294.118
1622.07,294.118
1625.12,294.118
1628.17,294.118
1631.22,294.118
1634.27,294.118
1637.32,294.118
1640.37,294.118
1643.42,294.118
1646.47,294.118
1649.52,294.118
1652.57,294.118
1655.62,294.118
1658.67,294.118
1661.72,294.118
1664.77,294.118
1667.82,294.118
1670.87,568.627
1673.92,568.627
1676.97,568.627
1680.02,568.627
1683.07,568.627
1686.12,568.627
1689.17,568.627
1692.22,843.137
1695.26,843.137
1698.31,843.137
1701.36,843.137
1704.41,843.137
1707.46,568.627
1710.51,568.627
1713.56,568.627
1716.61,568.627
1719.66,568.627
1722.71,294.118
1725.76,294.118
1728.81,294.118
1731.86,294.118
1734.91,294.118
1737.96,294.118
1741.01,294.118
1744.06,294.118
1747.11,294.118
1750.16,294.118
1753.21,294.118
1756.26,294.118
1759.31,294.118
1762.36,294.118
1765.41,294.118
1768.46,294.118
1771.51,294.118
1774.56,294.118
1777.61,294.118
1780.66,294.118
1783.71,568.627
1786.76,294.118
1789.81,294.118
1792.86,294.118
1795.91,294.118
1798.96,294.118
1802.01,294.118
1805.06,294.118
1808.11,294.118
1811.16,294.118
1814.21,294.118
1817.26,294.118
1820.3,294.118
1823.35,294.118
1826.4,294.118
1829.45,294.118
1832.5,294.118
1835.55,294.118
1838.6,294.118
1841.65,294.118
1844.7,294.118
1847.75,294.118
1850.8,294.118
1853.85,294.118
1856.9,294.118
1859.95,294.118
1863,294.118
1866.05,294.118
1869.1,294.118
1872.15,294.118
1875.2,294.118
1878.25,294.118
1881.3,294.118
1884.35,294.118
1887.4,294.118
1890.45,294.118
1893.5,294.118
1896.55,294.118
1899.6,294.118
1902.65,294.118
1905.7,294.118
1908.75,294.118
1911.8,294.118
1914.85,294.118
1917.9,294.118
1920.95,294.118
1924,294.118
1927.05,294.118
1930.1,294.118
1933.15,294.118
1936.2,294.118
1939.25,568.627
1942.3,568.627
1945.35,568.627
1948.39,568.627
1951.44,568.627
1954.49,568.627
1957.54,568.627
1960.59,568.627
1963.64,568.627
1966.69,568.627
1969.74,568.627
1972.79,568.627
1975.84,568.627
1978.89,568.627
1981.94,568.627
1984.99,294.118
1988.04,294.118
1991.09,294.118
1994.14,294.118
1997.19,294.118
2000.24,294.118
2003.29,294.118
2006.34,294.118
2009.39,294.118
2012.44,294.118
2015.49,294.118
2018.54,294.118
2021.59,294.118
2024.64,294.118
2027.69,294.118
2030.74,294.118
2033.79,294.118
2036.84,294.118
2039.89,294.118
2042.94,294.118
2045.99,294.118
2049.04,568.627
2052.09,294.118
2055.14,294.118
2058.19,294.118
2061.24,294.118
2064.29,294.118
2067.34,294.118
2070.39,294.118
2073.43,294.118
2076.48,294.118
2079.53,294.118
2082.58,294.118
2085.63,294.118
2088.68,294.118
2091.73,568.627
2094.78,568.627
2097.83,568.627
2100.88,568.627
2103.93,568.627
2106.98,568.627
2110.03,568.627
2113.08,568.627
2116.13,568.627
2119.18,568.627
2122.23,568.627
2125.28,568.627
2128.33,568.627
2131.38,568.627
2134.43,568.627
2137.48,568.627
2140.53,568.627
2143.58,568.627
2146.63,294.118
2149.68,294.118
2152.73,294.118
2155.78,294.118
2158.83,294.118
2161.88,568.627
2164.93,294.118
2167.98,294.118
2171.03,294.118
2174.08,294.118
2177.13,294.118
2180.18,294.118
2183.23,568.627
2186.28,568.627
2189.33,568.627
2192.38,568.627
2195.43,568.627
2198.48,568.627
2201.52,568.627
2204.57,568.627
2207.62,568.627
2210.67,294.118
2213.72,294.118
2216.77,294.118
2219.82,294.118
2222.87,294.118
2225.92,568.627
2228.97,568.627
2232.02,568.627
2235.07,294.118
2238.12,294.118
2241.17,294.118
2244.22,294.118
2247.27,294.118
2250.32,294.118
2253.37,294.118
2256.42,568.627
2259.47,568.627
2262.52,294.118
2265.57,294.118
2268.62,294.118
2271.67,294.118
2274.72,294.118
2277.77,294.118
2280.82,294.118
2283.87,294.118
2286.92,294.118
