,GP550R
RamanShit,Intensity
264.928,592.885
267.978,1225.3
271.027,1541.5
274.077,1857.71
277.127,1857.71
280.177,1541.5
283.226,1541.5
286.276,1225.3
289.326,909.091
292.376,592.885
295.425,276.68
298.475,276.68
301.525,-39.5257
304.575,-39.5257
307.624,-39.5257
310.674,-39.5257
313.724,-39.5257
316.774,-39.5257
319.823,-39.5257
322.873,-39.5257
325.923,-39.5257
328.973,-39.5257
332.022,-39.5257
335.072,-39.5257
338.122,-39.5257
341.172,-39.5257
344.222,-39.5257
347.271,-39.5257
350.321,-39.5257
353.371,-39.5257
356.421,-39.5257
359.47,-39.5257
362.52,-39.5257
365.57,-39.5257
368.62,-39.5257
371.669,-39.5257
374.719,-39.5257
377.769,-39.5257
380.819,-39.5257
383.868,-39.5257
386.918,-39.5257
389.968,-39.5257
393.018,-39.5257
396.067,-39.5257
399.117,-39.5257
402.167,-39.5257
405.217,-39.5257
408.266,-39.5257
411.316,-39.5257
414.366,-39.5257
417.416,-39.5257
420.465,-39.5257
423.515,-39.5257
426.565,-39.5257
429.615,-39.5257
432.665,-39.5257
435.714,-39.5257
438.764,-39.5257
441.814,-39.5257
444.864,-39.5257
447.913,-39.5257
450.963,-39.5257
454.013,-39.5257
457.063,-39.5257
460.112,-39.5257
463.162,-39.5257
466.212,-39.5257
469.262,-39.5257
472.311,-39.5257
475.361,-39.5257
478.411,-39.5257
481.461,-39.5257
484.51,-39.5257
487.56,-39.5257
490.61,-39.5257
493.66,-39.5257
496.709,-39.5257
499.759,-39.5257
502.809,-39.5257
505.859,-39.5257
508.909,-39.5257
511.958,-39.5257
515.008,-39.5257
518.058,-39.5257
521.108,-39.5257
524.157,-39.5257
527.207,-39.5257
530.257,-39.5257
533.307,-39.5257
536.356,-39.5257
539.406,-39.5257
542.456,-39.5257
545.506,-39.5257
548.555,-39.5257
551.605,-39.5257
554.655,-39.5257
557.705,-39.5257
560.754,-39.5257
563.804,-39.5257
566.854,-39.5257
569.904,-39.5257
572.953,-39.5257
576.003,-39.5257
579.053,-39.5257
582.103,-39.5257
585.152,-39.5257
588.202,-39.5257
591.252,-39.5257
594.302,-39.5257
597.352,-39.5257
600.401,-39.5257
603.451,-39.5257
606.501,-39.5257
609.551,-39.5257
612.6,-39.5257
615.65,-39.5257
618.7,-39.5257
621.75,-39.5257
624.799,-39.5257
627.849,-39.5257
630.899,-39.5257
633.949,-39.5257
636.998,-39.5257
640.048,-39.5257
643.098,-39.5257
646.148,-39.5257
649.197,-39.5257
652.247,-39.5257
655.297,-39.5257
658.347,-39.5257
661.396,-39.5257
664.446,-39.5257
667.496,-39.5257
670.546,-39.5257
673.596,-39.5257
676.645,-39.5257
679.695,-39.5257
682.745,-39.5257
685.795,-39.5257
688.844,276.68
691.894,592.885
694.944,909.091
697.994,2806.32
701.043,4387.35
704.093,8814.23
707.143,4387.35
710.193,3754.94
713.242,1857.71
716.292,592.885
719.342,276.68
722.392,276.68
725.441,-39.5257
728.491,-39.5257
731.541,-39.5257
734.591,-39.5257
737.64,-39.5257
740.69,-39.5257
743.74,-39.5257
746.79,-39.5257
749.839,-39.5257
752.889,-39.5257
755.939,-39.5257
758.989,-39.5257
762.039,-39.5257
765.088,-39.5257
768.138,-39.5257
771.188,-39.5257
774.238,-39.5257
777.287,-39.5257
780.337,-39.5257
783.387,-39.5257
786.437,-39.5257
789.486,-39.5257
792.536,-39.5257
795.586,-39.5257
798.636,-39.5257
801.685,-39.5257
804.735,-39.5257
807.785,-39.5257
810.835,-39.5257
813.884,-39.5257
816.934,-39.5257
819.984,-39.5257
823.034,-39.5257
826.083,-39.5257
829.133,-39.5257
832.183,-39.5257
835.233,-39.5257
838.283,-39.5257
841.332,-39.5257
844.382,-39.5257
847.432,-39.5257
850.482,-39.5257
853.531,-39.5257
856.581,-39.5257
859.631,-39.5257
862.681,-39.5257
865.73,-39.5257
868.78,-39.5257
871.83,-39.5257
874.88,-39.5257
877.929,-39.5257
880.979,-39.5257
884.029,-39.5257
887.079,-39.5257
890.128,-39.5257
893.178,-39.5257
896.228,-39.5257
899.278,-39.5257
902.327,-39.5257
905.377,-39.5257
908.427,-39.5257
911.477,-39.5257
914.526,-39.5257
917.576,-39.5257
920.626,-39.5257
923.676,-39.5257
926.726,-39.5257
929.775,-39.5257
932.825,-39.5257
935.875,-39.5257
938.925,-39.5257
941.974,-39.5257
945.024,-39.5257
948.074,-39.5257
951.124,-39.5257
954.173,-39.5257
957.223,-39.5257
960.273,-39.5257
963.323,-39.5257
966.372,-39.5257
969.422,-39.5257
972.472,-39.5257
975.522,-39.5257
978.571,-39.5257
981.621,-39.5257
984.671,-39.5257
987.721,-39.5257
990.77,-39.5257
993.82,-39.5257
996.87,-39.5257
999.92,-39.5257
1002.97,-39.5257
1006.02,-39.5257
1009.07,-39.5257
1012.12,-39.5257
1015.17,-39.5257
1018.22,-39.5257
1021.27,-39.5257
1024.32,-39.5257
1027.37,-39.5257
1030.42,-39.5257
1033.47,-39.5257
1036.52,-39.5257
1039.57,-39.5257
1042.62,-39.5257
1045.67,-39.5257
1048.72,-39.5257
1051.77,-39.5257
1054.82,-39.5257
1057.87,276.68
1060.91,276.68
1063.96,276.68
1067.01,276.68
1070.06,592.885
1073.11,909.091
1076.16,1225.3
1079.21,4071.15
1082.26,13241.1
1085.31,65098.8
1088.36,69209.5
1091.41,19881.4
1094.46,11343.9
1097.51,1857.71
1100.56,909.091
1103.61,592.885
1106.66,276.68
1109.71,276.68
1112.76,276.68
1115.81,-39.5257
1118.86,-39.5257
1121.91,-39.5257
1124.96,-39.5257
1128.01,-39.5257
1131.06,-39.5257
1134.11,-39.5257
1137.16,-39.5257
1140.21,-39.5257
1143.26,-39.5257
1146.31,-39.5257
1149.36,-39.5257
1152.41,-39.5257
1155.46,-39.5257
1158.51,-39.5257
1161.56,-39.5257
1164.61,-39.5257
1167.66,-39.5257
1170.71,-39.5257
1173.76,-39.5257
1176.81,-39.5257
1179.86,-39.5257
1182.91,-39.5257
1185.96,-39.5257
1189,-39.5257
1192.05,-39.5257
1195.1,-39.5257
1198.15,-39.5257
1201.2,-39.5257
1204.25,-39.5257
1207.3,-39.5257
1210.35,-39.5257
1213.4,-39.5257
1216.45,-39.5257
1219.5,-39.5257
1222.55,-39.5257
1225.6,-39.5257
1228.65,-39.5257
1231.7,-39.5257
1234.75,-39.5257
1237.8,-39.5257
1240.85,-39.5257
1243.9,-39.5257
1246.95,-39.5257
1250,-39.5257
1253.05,-39.5257
1256.1,-39.5257
1259.15,-39.5257
1262.2,-39.5257
1265.25,-39.5257
1268.3,-39.5257
1271.35,-39.5257
1274.4,-39.5257
1277.45,-39.5257
1280.5,-39.5257
1283.55,-39.5257
1286.6,-39.5257
1289.65,-39.5257
1292.7,-39.5257
1295.75,-39.5257
1298.8,-39.5257
1301.85,-39.5257
1304.9,-39.5257
1307.95,-39.5257
1311,-39.5257
1314.04,-39.5257
1317.09,-39.5257
1320.14,-39.5257
1323.19,-39.5257
1326.24,-39.5257
1329.29,-39.5257
1332.34,-39.5257
1335.39,-39.5257
1338.44,-39.5257
1341.49,-39.5257
1344.54,-39.5257
1347.59,-39.5257
1350.64,-39.5257
1353.69,-39.5257
1356.74,-39.5257
1359.79,-39.5257
1362.84,-39.5257
1365.89,-39.5257
1368.94,-39.5257
1371.99,-39.5257
1375.04,-39.5257
1378.09,-39.5257
1381.14,-39.5257
1384.19,-39.5257
1387.24,-39.5257
1390.29,-39.5257
1393.34,-39.5257
1396.39,-39.5257
1399.44,-39.5257
1402.49,-39.5257
1405.54,-39.5257
1408.59,-39.5257
1411.64,-39.5257
1414.69,-39.5257
1417.74,-39.5257
1420.79,-39.5257
1423.84,-39.5257
1426.89,-39.5257
1429.94,-39.5257
1432.99,-39.5257
1436.04,-39.5257
1439.09,-39.5257
1442.13,-39.5257
1445.18,-39.5257
1448.23,-39.5257
1451.28,-39.5257
1454.33,-39.5257
1457.38,-39.5257
1460.43,276.68
1463.48,276.68
1466.53,276.68
1469.58,276.68
1472.63,-39.5257
1475.68,-39.5257
1478.73,-39.5257
1481.78,-39.5257
1484.83,-39.5257
1487.88,-39.5257
1490.93,-39.5257
1493.98,-39.5257
1497.03,-39.5257
1500.08,-39.5257
1503.13,-39.5257
1506.18,-39.5257
1509.23,-39.5257
1512.28,-39.5257
1515.33,-39.5257
1518.38,-39.5257
1521.43,-39.5257
1524.48,-39.5257
1527.53,-39.5257
1530.58,-39.5257
1533.63,-39.5257
1536.68,-39.5257
1539.73,-39.5257
1542.78,-39.5257
1545.83,-39.5257
1548.88,-39.5257
1551.93,-39.5257
1554.98,-39.5257
1558.03,-39.5257
1561.08,-39.5257
1564.13,-39.5257
1567.17,-39.5257
1570.22,-39.5257
1573.27,-39.5257
1576.32,-39.5257
1579.37,-39.5257
1582.42,-39.5257
1585.47,-39.5257
1588.52,-39.5257
1591.57,-39.5257
1594.62,-39.5257
1597.67,-39.5257
1600.72,-39.5257
1603.77,-39.5257
1606.82,-39.5257
1609.87,-39.5257
1612.92,-39.5257
1615.97,-39.5257
1619.02,-39.5257
1622.07,-39.5257
1625.12,-39.5257
1628.17,-39.5257
1631.22,-39.5257
1634.27,-39.5257
1637.32,-39.5257
1640.37,-39.5257
1643.42,-39.5257
1646.47,-39.5257
1649.52,-39.5257
1652.57,-39.5257
1655.62,-39.5257
1658.67,-39.5257
1661.72,-39.5257
1664.77,-39.5257
1667.82,-39.5257
1670.87,-39.5257
1673.92,-39.5257
1676.97,-39.5257
1680.02,-39.5257
1683.07,-39.5257
1686.12,-39.5257
1689.17,-39.5257
1692.22,-39.5257
1695.26,-39.5257
1698.31,-39.5257
1701.36,-39.5257
1704.41,-39.5257
1707.46,-39.5257
1710.51,-39.5257
1713.56,-39.5257
1716.61,-39.5257
1719.66,-39.5257
1722.71,-39.5257
1725.76,-39.5257
1728.81,-39.5257
1731.86,-39.5257
1734.91,-39.5257
1737.96,-39.5257
1741.01,-39.5257
1744.06,-39.5257
1747.11,-39.5257
1750.16,-39.5257
1753.21,-39.5257
1756.26,-39.5257
1759.31,-39.5257
1762.36,-39.5257
1765.41,-39.5257
1768.46,-39.5257
1771.51,-39.5257
1774.56,-39.5257
1777.61,-39.5257
1780.66,-39.5257
1783.71,-39.5257
1786.76,-39.5257
1789.81,-39.5257
1792.86,-39.5257
1795.91,-39.5257
1798.96,-39.5257
1802.01,-39.5257
1805.06,-39.5257
1808.11,-39.5257
1811.16,-39.5257
1814.21,-39.5257
1817.26,-39.5257
1820.3,-39.5257
1823.35,-39.5257
1826.4,-39.5257
1829.45,-39.5257
1832.5,-39.5257
1835.55,-39.5257
1838.6,-39.5257
1841.65,-39.5257
1844.7,-39.5257
1847.75,-39.5257
1850.8,-39.5257
1853.85,-39.5257
1856.9,-39.5257
1859.95,-39.5257
1863,-39.5257
1866.05,-39.5257
1869.1,-39.5257
1872.15,-39.5257
1875.2,-39.5257
1878.25,-39.5257
1881.3,-39.5257
1884.35,-39.5257
1887.4,-39.5257
1890.45,-39.5257
1893.5,-39.5257
1896.55,-39.5257
1899.6,-39.5257
1902.65,-39.5257
1905.7,-39.5257
1908.75,-39.5257
1911.8,-39.5257
1914.85,-39.5257
1917.9,-39.5257
1920.95,-39.5257
1924,-39.5257
1927.05,-39.5257
1930.1,-39.5257
1933.15,-39.5257
1936.2,-39.5257
1939.25,-39.5257
1942.3,-39.5257
1945.35,-39.5257
1948.39,-39.5257
1951.44,-39.5257
1954.49,-39.5257
1957.54,-39.5257
1960.59,-39.5257
1963.64,-39.5257
1966.69,-39.5257
1969.74,-39.5257
1972.79,-39.5257
1975.84,-39.5257
1978.89,-39.5257
1981.94,-39.5257
1984.99,-39.5257
1988.04,-39.5257
1991.09,-39.5257
1994.14,-39.5257
1997.19,-39.5257
2000.24,-39.5257
2003.29,-39.5257
2006.34,-39.5257
2009.39,-39.5257
2012.44,-39.5257
2015.49,-39.5257
2018.54,-39.5257
2021.59,-39.5257
2024.64,-39.5257
2027.69,-39.5257
2030.74,-39.5257
2033.79,-39.5257
2036.84,-39.5257
2039.89,-39.5257
2042.94,-39.5257
2045.99,-39.5257
2049.04,-39.5257
2052.09,-39.5257
2055.14,-39.5257
2058.19,-39.5257
2061.24,-39.5257
2064.29,-39.5257
2067.34,-39.5257
2070.39,-39.5257
2073.43,-39.5257
2076.48,-39.5257
2079.53,-39.5257
2082.58,-39.5257
2085.63,-39.5257
2088.68,-39.5257
2091.73,-39.5257
2094.78,-39.5257
2097.83,-39.5257
2100.88,-39.5257
2103.93,-39.5257
2106.98,-39.5257
2110.03,-39.5257
2113.08,-39.5257
2116.13,-39.5257
2119.18,-39.5257
2122.23,-39.5257
2125.28,-39.5257
2128.33,-39.5257
2131.38,-39.5257
2134.43,-39.5257
2137.48,-39.5257
2140.53,-39.5257
2143.58,-39.5257
2146.63,-39.5257
2149.68,-39.5257
2152.73,-39.5257
2155.78,-39.5257
2158.83,-39.5257
2161.88,-39.5257
2164.93,-39.5257
2167.98,-39.5257
2171.03,-39.5257
2174.08,-39.5257
2177.13,-39.5257
2180.18,-39.5257
2183.23,-39.5257
2186.28,-39.5257
2189.33,-39.5257
2192.38,-39.5257
2195.43,-39.5257
2198.48,-39.5257
2201.52,-39.5257
2204.57,-39.5257
2207.62,-39.5257
2210.67,-39.5257
2213.72,-39.5257
2216.77,-39.5257
2219.82,-39.5257
2222.87,-39.5257
2225.92,-39.5257
2228.97,-39.5257
2232.02,-39.5257
2235.07,-39.5257
2238.12,-39.5257
2241.17,-39.5257
2244.22,-39.5257
2247.27,-39.5257
2250.32,-39.5257
2253.37,-39.5257
2256.42,-39.5257
2259.47,-39.5257
2262.52,-39.5257
2265.57,-39.5257
2268.62,-39.5257
2271.67,-39.5257
2274.72,-39.5257
2277.77,-39.5257
2280.82,-39.5257
2283.87,-39.5257
2286.92,-39.5257
2289.97,-39.5257
