,GP550R
RamanShit,Intensity
261.817,61.0236
264.871,88.5827
267.926,88.5827
270.981,116.142
274.035,143.701
277.09,198.819
280.145,226.378
283.199,309.055
286.254,391.732
289.309,391.732
292.363,419.291
295.418,419.291
298.473,391.732
301.527,391.732
304.582,391.732
307.637,391.732
310.691,446.85
313.746,557.087
316.801,667.323
319.855,667.323
322.91,777.559
325.965,639.764
329.019,529.528
332.074,336.614
335.129,198.819
338.183,143.701
341.238,116.142
344.293,116.142
347.347,88.5827
350.402,88.5827
353.457,61.0236
356.511,61.0236
359.566,61.0236
362.621,88.5827
365.675,88.5827
368.73,88.5827
371.785,88.5827
374.839,116.142
377.894,116.142
380.949,143.701
384.003,226.378
387.058,364.173
390.113,501.969
393.167,694.882
396.222,832.677
399.277,1025.59
402.331,832.677
405.386,722.441
408.441,529.528
411.495,419.291
414.55,391.732
417.605,364.173
420.659,364.173
423.714,309.055
426.768,226.378
429.823,143.701
432.878,116.142
435.932,116.142
438.987,116.142
442.042,116.142
445.096,116.142
448.151,116.142
451.206,88.5827
454.26,61.0236
457.315,61.0236
460.37,61.0236
463.424,61.0236
466.479,61.0236
469.534,88.5827
472.588,143.701
475.643,226.378
478.698,391.732
481.752,667.323
484.807,1025.59
487.862,1080.71
490.916,832.677
493.971,694.882
497.026,446.85
500.08,336.614
503.135,309.055
506.19,336.614
509.244,336.614
512.299,336.614
515.354,364.173
518.408,364.173
521.463,364.173
524.518,391.732
527.572,391.732
530.627,391.732
533.682,419.291
536.736,391.732
539.791,391.732
542.846,281.496
545.9,171.26
548.955,198.819
552.01,198.819
555.064,198.819
558.119,198.819
561.174,198.819
564.228,226.378
567.283,226.378
570.338,226.378
573.392,253.937
576.447,281.496
579.502,281.496
582.556,253.937
585.611,253.937
588.666,198.819
591.72,143.701
594.775,143.701
597.83,143.701
600.884,143.701
603.939,171.26
606.994,171.26
610.048,198.819
613.103,226.378
616.158,226.378
619.212,226.378
622.267,226.378
625.322,198.819
628.376,198.819
631.431,198.819
634.486,198.819
637.54,198.819
640.595,198.819
643.65,198.819
646.704,171.26
649.759,171.26
652.814,171.26
655.868,143.701
658.923,143.701
661.977,143.701
665.032,171.26
668.087,226.378
671.141,364.173
674.196,557.087
677.251,915.354
680.305,1659.45
683.36,2651.57
686.415,4856.3
689.469,5104.33
692.524,3064.96
695.579,2403.54
698.633,1328.74
701.688,750
704.743,474.409
707.797,336.614
710.852,253.937
713.907,226.378
716.961,171.26
720.016,143.701
723.071,116.142
726.125,116.142
729.18,116.142
732.235,116.142
735.289,88.5827
738.344,88.5827
741.399,88.5827
744.453,88.5827
747.508,61.0236
750.563,61.0236
753.617,33.4646
756.672,33.4646
759.727,61.0236
762.781,61.0236
765.836,88.5827
768.891,88.5827
771.945,61.0236
775,61.0236
778.055,61.0236
781.109,61.0236
784.164,61.0236
787.219,61.0236
790.273,61.0236
793.328,61.0236
796.383,61.0236
799.437,61.0236
802.492,61.0236
805.547,61.0236
808.601,61.0236
811.656,88.5827
814.711,116.142
817.765,116.142
820.82,143.701
823.875,143.701
826.929,143.701
829.984,171.26
833.039,198.819
836.093,226.378
839.148,226.378
842.203,226.378
845.257,226.378
848.312,198.819
851.367,198.819
854.421,198.819
857.476,198.819
860.531,198.819
863.585,198.819
866.64,198.819
869.695,171.26
872.749,171.26
875.804,143.701
878.859,143.701
881.913,143.701
884.968,116.142
888.023,116.142
891.077,116.142
894.132,116.142
897.186,143.701
900.241,143.701
903.296,143.701
906.35,171.26
909.405,171.26
912.46,171.26
915.514,198.819
918.569,198.819
921.624,171.26
924.678,171.26
927.733,171.26
930.788,171.26
933.842,143.701
936.897,116.142
939.952,88.5827
943.006,88.5827
946.061,88.5827
949.116,88.5827
952.17,88.5827
955.225,88.5827
958.28,88.5827
961.334,88.5827
964.389,88.5827
967.444,61.0236
970.498,61.0236
973.553,61.0236
976.608,61.0236
979.662,61.0236
982.717,61.0236
985.772,61.0236
988.826,88.5827
991.881,116.142
994.936,143.701
997.99,171.26
1001.05,281.496
1004.1,391.732
1007.15,529.528
1010.21,612.205
1013.26,667.323
1016.32,584.646
1019.37,557.087
1022.43,419.291
1025.48,309.055
1028.54,198.819
1031.59,143.701
1034.65,116.142
1037.7,116.142
1040.76,116.142
1043.81,143.701
1046.86,171.26
1049.92,198.819
1052.97,253.937
1056.03,364.173
1059.08,557.087
1062.14,805.118
1065.19,1080.71
1068.25,1301.18
1071.3,1466.54
1074.36,1328.74
1077.41,1301.18
1080.47,1163.39
1083.52,860.236
1086.58,612.205
1089.63,419.291
1092.68,281.496
1095.74,253.937
1098.79,253.937
1101.85,253.937
1104.9,253.937
1107.96,253.937
1111.01,253.937
1114.07,226.378
1117.12,171.26
1120.18,116.142
1123.23,88.5827
1126.29,116.142
1129.34,171.26
1132.4,253.937
1135.45,391.732
1138.5,529.528
1141.56,694.882
1144.61,915.354
1147.67,1108.27
1150.72,1273.62
1153.78,1383.86
1156.83,1438.98
1159.89,1521.65
1162.94,1742.13
1166,1990.16
1169.05,2127.95
1172.11,2238.19
1175.16,1990.16
1178.22,1659.45
1181.27,1218.5
1184.32,777.559
1187.38,474.409
1190.43,364.173
1193.49,281.496
1196.54,198.819
1199.6,143.701
1202.65,171.26
1205.71,198.819
1208.76,253.937
1211.82,391.732
1214.87,557.087
1217.93,750
1220.98,915.354
1224.04,998.031
1227.09,1053.15
1230.14,998.031
1233.2,970.472
1236.25,860.236
1239.31,722.441
1242.36,584.646
1245.42,446.85
1248.47,336.614
1251.53,281.496
1254.58,198.819
1257.64,143.701
1260.69,88.5827
1263.75,88.5827
1266.8,88.5827
1269.86,198.819
1272.91,336.614
1275.96,501.969
1279.02,667.323
1282.07,750
1285.13,832.677
1288.18,750
1291.24,667.323
1294.29,474.409
1297.35,281.496
1300.4,226.378
1303.46,198.819
1306.51,226.378
1309.57,226.378
1312.62,226.378
1315.68,226.378
1318.73,253.937
1321.78,309.055
1324.84,364.173
1327.89,474.409
1330.95,639.764
1334,860.236
1337.06,1135.83
1340.11,1411.42
1343.17,1714.57
1346.22,1852.36
1349.28,1935.04
1352.33,1852.36
1355.39,1714.57
1358.44,1438.98
1361.5,1218.5
1364.55,1025.59
1367.6,805.118
1370.66,612.205
1373.71,474.409
1376.77,391.732
1379.82,281.496
1382.88,253.937
1385.93,226.378
1388.99,226.378
1392.04,226.378
1395.1,253.937
1398.15,336.614
1401.21,419.291
1404.26,474.409
1407.32,529.528
1410.37,529.528
1413.42,529.528
1416.48,501.969
1419.53,446.85
1422.59,336.614
1425.64,226.378
1428.7,143.701
1431.75,88.5827
1434.81,61.0236
1437.86,61.0236
1440.92,61.0236
1443.97,61.0236
1447.03,61.0236
1450.08,61.0236
1453.14,61.0236
1456.19,61.0236
1459.24,61.0236
1462.3,61.0236
1465.35,61.0236
1468.41,61.0236
1471.46,61.0236
1474.52,61.0236
1477.57,88.5827
1480.63,116.142
1483.68,143.701
1486.74,171.26
1489.79,171.26
1492.85,171.26
1495.9,171.26
1498.95,171.26
1502.01,171.26
1505.06,171.26
1508.12,171.26
1511.17,198.819
1514.23,198.819
1517.28,171.26
1520.34,171.26
1523.39,171.26
1526.45,143.701
1529.5,143.701
1532.56,143.701
1535.61,143.701
1538.67,143.701
1541.72,171.26
1544.77,198.819
1547.83,253.937
1550.88,336.614
1553.94,391.732
1556.99,446.85
1560.05,529.528
1563.1,612.205
1566.16,722.441
1569.21,805.118
1572.27,915.354
1575.32,832.677
1578.38,805.118
1581.43,805.118
1584.49,750
1587.54,750
1590.59,750
1593.65,750
1596.7,750
1599.76,777.559
1602.81,832.677
1605.87,887.795
1608.92,887.795
1611.98,860.236
1615.03,777.559
1618.09,557.087
1621.14,391.732
1624.2,253.937
1627.25,198.819
1630.31,171.26
1633.36,143.701
1636.41,88.5827
1639.47,88.5827
1642.52,61.0236
1645.58,61.0236
1648.63,61.0236
1651.69,61.0236
1654.74,61.0236
1657.8,61.0236
1660.85,88.5827
1663.91,88.5827
1666.96,88.5827
1670.02,88.5827
1673.07,61.0236
1676.13,61.0236
1679.18,61.0236
1682.23,61.0236
1685.29,61.0236
1688.34,88.5827
1691.4,88.5827
1694.45,116.142
1697.51,116.142
1700.56,143.701
1703.62,143.701
1706.67,171.26
1709.73,171.26
1712.78,198.819
1715.84,171.26
1718.89,143.701
1721.95,143.701
1725,143.701
1728.05,116.142
1731.11,116.142
1734.16,116.142
1737.22,116.142
1740.27,88.5827
1743.33,88.5827
1746.38,88.5827
1749.44,88.5827
1752.49,88.5827
1755.55,88.5827
1758.6,116.142
1761.66,143.701
1764.71,171.26
1767.77,171.26
1770.82,198.819
1773.87,198.819
1776.93,198.819
1779.98,198.819
1783.04,198.819
1786.09,198.819
1789.15,198.819
1792.2,226.378
1795.26,226.378
1798.31,226.378
1801.37,226.378
1804.42,226.378
1807.48,253.937
1810.53,253.937
1813.59,253.937
1816.64,281.496
1819.69,281.496
1822.75,281.496
1825.8,281.496
1828.86,281.496
1831.91,281.496
1834.97,253.937
1838.02,253.937
1841.08,281.496
1844.13,281.496
1847.19,253.937
1850.24,253.937
1853.3,253.937
1856.35,226.378
1859.41,198.819
1862.46,143.701
1865.51,143.701
1868.57,116.142
1871.62,88.5827
1874.68,61.0236
1877.73,61.0236
1880.79,61.0236
1883.84,61.0236
1886.9,88.5827
1889.95,88.5827
1893.01,88.5827
1896.06,88.5827
1899.12,116.142
1902.17,116.142
1905.23,116.142
1908.28,143.701
1911.33,143.701
1914.39,143.701
1917.44,143.701
1920.5,143.701
1923.55,116.142
1926.61,143.701
1929.66,143.701
1932.72,143.701
1935.77,143.701
1938.83,143.701
1941.88,116.142
1944.94,116.142
1947.99,116.142
1951.05,116.142
1954.1,143.701
1957.15,143.701
1960.21,171.26
1963.26,171.26
1966.32,171.26
1969.37,143.701
1972.43,143.701
1975.48,143.701
1978.54,143.701
1981.59,143.701
1984.65,143.701
1987.7,171.26
1990.76,171.26
1993.81,171.26
1996.86,171.26
1999.92,171.26
2002.97,171.26
2006.03,143.701
2009.08,116.142
2012.14,116.142
2015.19,116.142
2018.25,116.142
2021.3,143.701
2024.36,171.26
2027.41,198.819
2030.47,198.819
2033.52,198.819
2036.58,226.378
2039.63,253.937
2042.68,253.937
2045.74,281.496
2048.79,281.496
2051.85,281.496
2054.9,281.496
2057.96,281.496
2061.01,281.496
2064.07,253.937
2067.12,198.819
2070.18,198.819
2073.23,171.26
2076.29,143.701
2079.34,143.701
2082.4,143.701
2085.45,143.701
2088.5,143.701
2091.56,116.142
2094.61,88.5827
2097.67,88.5827
2100.72,88.5827
2103.78,116.142
2106.83,143.701
2109.89,171.26
2112.94,198.819
2116,198.819
2119.05,226.378
2122.11,226.378
2125.16,226.378
2128.22,226.378
2131.27,226.378
2134.32,226.378
2137.38,226.378
2140.43,226.378
2143.49,226.378
2146.54,226.378
2149.6,226.378
2152.65,226.378
2155.71,226.378
2158.76,226.378
2161.82,226.378
2164.87,226.378
2167.93,253.937
2170.98,281.496
2174.04,309.055
2177.09,309.055
2180.14,336.614
2183.2,364.173
2186.25,364.173
2189.31,391.732
2192.36,391.732
2195.42,419.291
2198.47,419.291
2201.53,446.85
2204.58,501.969
2207.64,557.087
2210.69,639.764
2213.75,694.882
2216.8,722.441
2219.86,750
2222.91,777.559
2225.96,832.677
2229.02,777.559
2232.07,777.559
2235.13,805.118
2238.18,805.118
2241.24,860.236
2244.29,915.354
2247.35,970.472
2250.4,998.031
2253.46,1025.59
2256.51,998.031
2259.57,998.031
2262.62,970.472
2265.68,942.913
2268.73,942.913
2271.78,887.795
2274.84,805.118
2277.89,667.323
2280.95,446.85
2284,226.378
2287.06,88.5827
2290.11,-49.2126
