,GP550R
RamanShit,Intensity
255.707,-1058.82
258.762,-431.373
261.817,-117.647
264.871,-117.647
267.926,196.078
270.981,196.078
274.035,509.804
277.09,823.529
280.145,1137.25
283.199,1764.71
286.254,2078.43
289.309,2392.16
292.363,3647.06
295.418,5843.14
298.473,8980.39
301.527,13686.3
304.582,20588.2
307.637,30941.2
310.691,43490.2
313.746,50392.2
316.801,56039.2
319.855,50392.2
322.91,44745.1
325.965,32823.5
329.019,21843.1
332.074,14000
335.129,8666.67
338.183,5215.69
341.238,3019.61
344.293,1450.98
347.347,823.529
350.402,196.078
353.457,196.078
356.511,196.078
359.566,509.804
362.621,509.804
365.675,823.529
368.73,509.804
371.785,196.078
374.839,196.078
377.894,196.078
380.949,509.804
384.003,823.529
387.058,1450.98
390.113,2392.16
393.167,3647.06
396.222,5529.41
399.277,8980.39
402.331,13686.3
405.386,16509.8
408.441,21215.7
411.495,21843.1
414.55,16823.5
417.605,14941.2
420.659,10549
423.714,6784.31
426.768,4274.51
429.823,2392.16
432.878,1137.25
435.932,823.529
438.987,823.529
442.042,823.529
445.096,1137.25
448.151,1137.25
451.206,1450.98
454.26,1450.98
457.315,1137.25
460.37,1137.25
463.424,509.804
466.479,509.804
469.534,509.804
472.588,509.804
475.643,509.804
478.698,1137.25
481.752,1764.71
484.807,3019.61
487.862,4901.96
490.916,7725.49
493.971,11490.2
497.026,13686.3
500.08,15882.4
503.135,13686.3
506.19,12431.4
509.244,9294.12
512.299,6156.86
515.354,4588.24
518.408,3647.06
521.463,3647.06
524.518,3647.06
527.572,4274.51
530.627,5215.69
533.682,6470.59
536.736,7725.49
539.791,8352.94
542.846,8352.94
545.9,8039.22
548.955,7411.76
552.01,5843.14
555.064,4274.51
558.119,3019.61
561.174,2078.43
564.228,1137.25
567.283,823.529
570.338,509.804
573.392,196.078
576.447,196.078
579.502,196.078
582.556,196.078
585.611,196.078
588.666,196.078
591.72,509.804
594.775,823.529
597.83,1137.25
600.884,1450.98
603.939,2078.43
606.994,3019.61
610.048,4274.51
613.103,5843.14
616.158,7725.49
619.212,9921.57
622.267,12431.4
625.322,15568.6
628.376,19019.6
631.431,21843.1
634.486,23411.8
637.54,24666.7
640.595,23411.8
643.65,22470.6
646.704,19960.8
649.759,16823.5
652.814,14000
655.868,11176.5
658.923,8980.39
661.977,7098.04
665.032,5843.14
668.087,4588.24
671.141,3333.33
674.196,2705.88
677.251,2392.16
680.305,1764.71
683.36,1450.98
686.415,1137.25
689.469,823.529
692.524,509.804
695.579,509.804
698.633,196.078
701.688,196.078
704.743,196.078
707.797,196.078
710.852,196.078
713.907,196.078
716.961,196.078
720.016,196.078
723.071,196.078
726.125,196.078
729.18,196.078
732.235,196.078
735.289,196.078
738.344,196.078
741.399,196.078
744.453,196.078
747.508,196.078
750.563,196.078
753.617,196.078
756.672,196.078
759.727,196.078
762.781,196.078
765.836,196.078
768.891,196.078
771.945,196.078
775,196.078
778.055,196.078
781.109,196.078
784.164,196.078
787.219,196.078
790.273,196.078
793.328,196.078
796.383,196.078
799.437,196.078
802.492,196.078
805.547,509.804
808.601,509.804
811.656,509.804
814.711,509.804
817.765,509.804
820.82,509.804
823.875,509.804
826.929,509.804
829.984,196.078
833.039,196.078
836.093,196.078
839.148,196.078
842.203,196.078
845.257,196.078
848.312,196.078
851.367,196.078
854.421,196.078
857.476,196.078
860.531,196.078
863.585,196.078
866.64,196.078
869.695,196.078
872.749,196.078
875.804,196.078
878.859,196.078
881.913,196.078
884.968,196.078
888.023,196.078
891.077,196.078
894.132,196.078
897.186,196.078
900.241,196.078
903.296,196.078
906.35,196.078
909.405,196.078
912.46,196.078
915.514,196.078
918.569,196.078
921.624,196.078
924.678,196.078
927.733,196.078
930.788,196.078
933.842,196.078
936.897,196.078
939.952,196.078
943.006,196.078
946.061,196.078
949.116,196.078
952.17,196.078
955.225,196.078
958.28,196.078
961.334,196.078
964.389,196.078
967.444,196.078
970.498,196.078
973.553,196.078
976.608,196.078
979.662,196.078
982.717,196.078
985.772,196.078
988.826,196.078
991.881,196.078
994.936,196.078
997.99,196.078
1001.05,196.078
1004.1,196.078
1007.15,196.078
1010.21,196.078
1013.26,196.078
1016.32,196.078
1019.37,196.078
1022.43,196.078
1025.48,196.078
1028.54,196.078
1031.59,196.078
1034.65,196.078
1037.7,196.078
1040.76,196.078
1043.81,196.078
1046.86,196.078
1049.92,196.078
1052.97,196.078
1056.03,196.078
1059.08,196.078
1062.14,196.078
1065.19,196.078
1068.25,196.078
1071.3,196.078
1074.36,196.078
1077.41,196.078
1080.47,196.078
1083.52,196.078
1086.58,196.078
1089.63,196.078
1092.68,196.078
1095.74,196.078
1098.79,196.078
1101.85,196.078
1104.9,196.078
1107.96,196.078
1111.01,196.078
1114.07,196.078
1117.12,196.078
1120.18,196.078
1123.23,196.078
1126.29,196.078
1129.34,509.804
1132.4,509.804
1135.45,509.804
1138.5,509.804
1141.56,509.804
1144.61,509.804
1147.67,509.804
1150.72,509.804
1153.78,509.804
1156.83,509.804
1159.89,823.529
1162.94,823.529
1166,823.529
1169.05,823.529
1172.11,823.529
1175.16,823.529
1178.22,823.529
1181.27,509.804
1184.32,509.804
1187.38,509.804
1190.43,509.804
1193.49,509.804
1196.54,196.078
1199.6,196.078
1202.65,196.078
1205.71,196.078
1208.76,509.804
1211.82,509.804
1214.87,509.804
1217.93,509.804
1220.98,509.804
1224.04,509.804
1227.09,509.804
1230.14,509.804
1233.2,509.804
1236.25,509.804
1239.31,509.804
1242.36,509.804
1245.42,196.078
1248.47,196.078
1251.53,196.078
1254.58,196.078
1257.64,196.078
1260.69,196.078
1263.75,196.078
1266.8,196.078
1269.86,196.078
1272.91,196.078
1275.96,509.804
1279.02,509.804
1282.07,509.804
1285.13,509.804
1288.18,509.804
1291.24,196.078
1294.29,196.078
1297.35,196.078
1300.4,196.078
1303.46,196.078
1306.51,196.078
1309.57,196.078
1312.62,196.078
1315.68,196.078
1318.73,196.078
1321.78,196.078
1324.84,196.078
1327.89,509.804
1330.95,509.804
1334,509.804
1337.06,823.529
1340.11,823.529
1343.17,823.529
1346.22,823.529
1349.28,823.529
1352.33,823.529
1355.39,823.529
1358.44,509.804
1361.5,509.804
1364.55,509.804
1367.6,509.804
1370.66,509.804
1373.71,509.804
1376.77,509.804
1379.82,509.804
1382.88,509.804
1385.93,509.804
1388.99,509.804
1392.04,509.804
1395.1,509.804
1398.15,509.804
1401.21,509.804
1404.26,509.804
1407.32,509.804
1410.37,509.804
1413.42,509.804
1416.48,509.804
1419.53,196.078
1422.59,196.078
1425.64,196.078
1428.7,196.078
1431.75,196.078
1434.81,196.078
1437.86,196.078
1440.92,196.078
1443.97,196.078
1447.03,196.078
1450.08,196.078
1453.14,196.078
1456.19,196.078
1459.24,196.078
1462.3,196.078
1465.35,196.078
1468.41,196.078
1471.46,196.078
1474.52,196.078
1477.57,196.078
1480.63,196.078
1483.68,196.078
1486.74,196.078
1489.79,196.078
1492.85,196.078
1495.9,196.078
1498.95,196.078
1502.01,196.078
1505.06,196.078
1508.12,196.078
1511.17,196.078
1514.23,196.078
1517.28,196.078
1520.34,196.078
1523.39,196.078
1526.45,196.078
1529.5,196.078
1532.56,196.078
1535.61,196.078
1538.67,509.804
1541.72,509.804
1544.77,509.804
1547.83,509.804
1550.88,509.804
1553.94,509.804
1556.99,509.804
1560.05,509.804
1563.1,509.804
1566.16,509.804
1569.21,509.804
1572.27,509.804
1575.32,509.804
1578.38,509.804
1581.43,509.804
1584.49,509.804
1587.54,509.804
1590.59,509.804
1593.65,509.804
1596.7,509.804
1599.76,509.804
1602.81,509.804
1605.87,509.804
1608.92,509.804
1611.98,509.804
1615.03,509.804
1618.09,509.804
1621.14,196.078
1624.2,196.078
1627.25,196.078
1630.31,196.078
1633.36,196.078
1636.41,196.078
1639.47,196.078
1642.52,196.078
1645.58,196.078
1648.63,196.078
1651.69,196.078
1654.74,196.078
1657.8,196.078
1660.85,196.078
1663.91,196.078
1666.96,196.078
1670.02,196.078
1673.07,196.078
1676.13,196.078
1679.18,196.078
1682.23,196.078
1685.29,196.078
1688.34,196.078
1691.4,196.078
1694.45,196.078
1697.51,196.078
1700.56,196.078
1703.62,196.078
1706.67,196.078
1709.73,196.078
1712.78,196.078
1715.84,196.078
1718.89,196.078
1721.95,196.078
1725,196.078
1728.05,196.078
1731.11,196.078
1734.16,509.804
1737.22,509.804
1740.27,196.078
1743.33,196.078
1746.38,196.078
1749.44,196.078
1752.49,196.078
1755.55,196.078
1758.6,196.078
1761.66,196.078
1764.71,196.078
1767.77,509.804
1770.82,196.078
1773.87,196.078
1776.93,196.078
1779.98,196.078
1783.04,196.078
1786.09,196.078
1789.15,196.078
1792.2,196.078
1795.26,196.078
1798.31,196.078
1801.37,196.078
1804.42,509.804
1807.48,509.804
1810.53,509.804
1813.59,509.804
1816.64,509.804
1819.69,509.804
1822.75,509.804
1825.8,509.804
1828.86,509.804
1831.91,196.078
1834.97,196.078
1838.02,196.078
1841.08,196.078
1844.13,196.078
1847.19,509.804
1850.24,509.804
1853.3,509.804
1856.35,196.078
1859.41,196.078
1862.46,196.078
1865.51,196.078
1868.57,196.078
1871.62,196.078
1874.68,509.804
1877.73,196.078
1880.79,196.078
1883.84,196.078
1886.9,196.078
1889.95,196.078
1893.01,196.078
1896.06,196.078
1899.12,196.078
1902.17,196.078
1905.23,196.078
1908.28,196.078
1911.33,196.078
1914.39,196.078
1917.44,196.078
1920.5,196.078
1923.55,196.078
1926.61,196.078
1929.66,196.078
1932.72,196.078
1935.77,509.804
1938.83,196.078
1941.88,196.078
1944.94,196.078
1947.99,196.078
1951.05,196.078
1954.1,196.078
1957.15,196.078
1960.21,196.078
1963.26,196.078
1966.32,196.078
1969.37,196.078
1972.43,196.078
1975.48,196.078
1978.54,196.078
1981.59,196.078
1984.65,509.804
1987.7,509.804
1990.76,509.804
1993.81,509.804
1996.86,509.804
1999.92,196.078
2002.97,196.078
2006.03,196.078
2009.08,196.078
2012.14,196.078
2015.19,196.078
2018.25,196.078
2021.3,196.078
2024.36,196.078
2027.41,196.078
2030.47,196.078
2033.52,196.078
2036.58,196.078
2039.63,196.078
2042.68,196.078
2045.74,196.078
2048.79,196.078
2051.85,196.078
2054.9,509.804
2057.96,196.078
2061.01,196.078
2064.07,196.078
2067.12,196.078
2070.18,196.078
2073.23,196.078
2076.29,196.078
2079.34,196.078
2082.4,196.078
2085.45,196.078
2088.5,196.078
2091.56,196.078
2094.61,196.078
2097.67,196.078
2100.72,196.078
2103.78,196.078
2106.83,196.078
2109.89,196.078
2112.94,196.078
2116,196.078
2119.05,196.078
2122.11,196.078
2125.16,196.078
2128.22,196.078
2131.27,196.078
2134.32,196.078
2137.38,196.078
2140.43,196.078
2143.49,196.078
2146.54,196.078
2149.6,196.078
2152.65,196.078
2155.71,196.078
2158.76,196.078
2161.82,196.078
2164.87,196.078
2167.93,196.078
2170.98,196.078
2174.04,196.078
2177.09,196.078
2180.14,196.078
2183.2,196.078
2186.25,196.078
2189.31,196.078
2192.36,196.078
2195.42,196.078
2198.47,196.078
2201.53,196.078
2204.58,196.078
2207.64,196.078
2210.69,196.078
2213.75,196.078
2216.8,196.078
2219.86,196.078
2222.91,509.804
2225.96,196.078
2229.02,196.078
2232.07,196.078
2235.13,196.078
2238.18,196.078
2241.24,196.078
2244.29,196.078
2247.35,196.078
2250.4,509.804
2253.46,196.078
2256.51,196.078
2259.57,196.078
2262.62,196.078
2265.68,196.078
2268.73,196.078
2271.78,196.078
2274.84,196.078
2277.89,196.078
2280.95,196.078
2284,196.078
2287.06,509.804
2290.11,509.804
