,GP550R
RamanShit,Intensity
252.423,48.0392
255.493,30.3922
258.562,16.6667
261.632,10.7843
264.701,22.549
267.771,10.7843
270.84,22.549
273.91,12.7451
276.979,32.3529
280.048,8.82353
283.118,6.86275
286.187,4.90196
289.257,12.7451
292.326,6.86275
295.396,8.82353
298.465,10.7843
301.535,38.2353
304.604,46.0784
307.674,36.2745
310.743,57.8431
313.813,46.0784
316.882,50
319.952,63.7255
323.021,79.4118
326.09,89.2157
329.16,89.2157
332.229,91.1765
335.299,95.098
338.368,81.3725
341.438,69.6078
344.507,51.9608
347.577,36.2745
350.646,34.3137
353.716,34.3137
356.785,18.6275
359.855,16.6667
362.924,16.6667
365.994,10.7843
369.063,18.6275
372.132,24.5098
375.202,34.3137
378.271,48.0392
381.341,53.9216
384.41,61.7647
387.48,71.5686
390.549,81.3725
393.619,112.745
396.688,120.588
399.758,118.627
402.827,122.549
405.897,128.431
408.966,140.196
412.036,120.588
415.105,126.471
418.174,118.627
421.244,104.902
424.313,83.3333
427.383,67.6471
430.452,48.0392
433.522,42.1569
436.591,40.1961
439.661,57.8431
442.73,44.1176
445.8,34.3137
448.869,34.3137
451.939,34.3137
455.008,38.2353
458.078,44.1176
461.147,12.7451
464.216,18.6275
467.286,18.6275
470.355,24.5098
473.425,55.8824
476.494,69.6078
479.564,51.9608
482.633,55.8824
485.703,28.4314
488.772,67.6471
491.842,48.0392
494.911,44.1176
497.981,55.8824
501.05,38.2353
504.12,20.5882
507.189,32.3529
510.258,42.1569
513.328,26.4706
516.397,20.5882
519.467,20.5882
522.536,20.5882
525.606,36.2745
528.675,30.3922
531.745,26.4706
534.814,44.1176
537.884,18.6275
540.953,12.7451
544.023,24.5098
547.092,36.2745
550.162,16.6667
553.231,24.5098
556.3,26.4706
559.37,40.1961
562.439,57.8431
565.509,22.549
568.578,40.1961
571.648,20.5882
574.717,20.5882
577.787,36.2745
580.856,20.5882
583.926,14.7059
586.995,10.7843
590.065,10.7843
593.134,12.7451
596.204,24.5098
599.273,26.4706
602.342,20.5882
605.412,16.6667
608.481,18.6275
611.551,20.5882
614.62,26.4706
617.69,8.82353
620.759,6.86275
623.829,22.549
626.898,18.6275
629.968,16.6667
633.037,22.549
636.107,59.8039
639.176,53.9216
642.246,81.3725
645.315,69.6078
648.384,97.0588
651.454,126.471
654.523,159.804
657.593,202.941
660.662,242.157
663.732,281.373
666.801,318.627
669.871,344.118
672.94,353.922
676.01,312.745
679.079,242.157
682.149,187.255
685.218,142.157
688.288,110.784
691.357,77.451
694.426,69.6078
697.496,81.3725
700.565,71.5686
703.635,40.1961
706.704,32.3529
709.774,32.3529
712.843,32.3529
715.913,22.549
718.982,30.3922
722.052,32.3529
725.121,44.1176
728.191,20.5882
731.26,14.7059
734.33,12.7451
737.399,16.6667
740.468,36.2745
743.538,28.4314
746.607,22.549
749.677,20.5882
752.746,22.549
755.816,34.3137
758.885,22.549
761.955,22.549
765.024,22.549
768.094,30.3922
771.163,34.3137
774.233,26.4706
777.302,30.3922
780.372,36.2745
783.441,44.1176
786.511,46.0784
789.58,46.0784
792.649,46.0784
795.719,48.0392
798.788,53.9216
801.858,61.7647
804.927,18.6275
807.997,24.5098
811.066,24.5098
814.136,40.1961
817.205,26.4706
820.275,26.4706
823.344,38.2353
826.414,20.5882
829.483,22.549
832.553,30.3922
835.622,16.6667
838.691,8.82353
841.761,16.6667
844.83,12.7451
847.9,44.1176
850.969,53.9216
854.039,30.3922
857.108,36.2745
860.178,38.2353
863.247,20.5882
866.317,26.4706
869.386,46.0784
872.456,30.3922
875.525,28.4314
878.595,42.1569
881.664,36.2745
884.733,44.1176
887.803,18.6275
890.872,16.6667
893.942,24.5098
897.011,42.1569
900.081,30.3922
903.15,30.3922
906.22,30.3922
909.289,46.0784
912.359,30.3922
915.428,30.3922
918.498,55.8824
921.567,30.3922
924.637,34.3137
927.706,42.1569
930.775,55.8824
933.845,36.2745
936.914,51.9608
939.984,42.1569
943.053,42.1569
946.123,46.0784
949.192,38.2353
952.262,57.8431
955.331,24.5098
958.401,24.5098
961.47,36.2745
964.54,24.5098
967.609,24.5098
970.679,18.6275
973.748,38.2353
976.817,24.5098
979.887,36.2745
982.956,26.4706
986.026,22.549
989.095,32.3529
992.165,14.7059
995.234,14.7059
998.304,14.7059
1001.37,20.5882
1004.44,12.7451
1007.51,18.6275
1010.58,34.3137
1013.65,8.82353
1016.72,20.5882
1019.79,28.4314
1022.86,28.4314
1025.93,48.0392
1029,38.2353
1032.07,42.1569
1035.14,46.0784
1038.21,61.7647
1041.28,77.451
1044.35,42.1569
1047.42,38.2353
1050.48,22.549
1053.55,40.1961
1056.62,46.0784
1059.69,42.1569
1062.76,30.3922
1065.83,50
1068.9,14.7059
1071.97,12.7451
1075.04,14.7059
1078.11,30.3922
1081.18,24.5098
1084.25,20.5882
1087.32,32.3529
1090.39,42.1569
1093.46,50
1096.53,18.6275
1099.6,34.3137
1102.67,28.4314
1105.74,30.3922
1108.8,14.7059
1111.87,20.5882
1114.94,28.4314
1118.01,42.1569
1121.08,40.1961
1124.15,48.0392
1127.22,34.3137
1130.29,34.3137
1133.36,30.3922
1136.43,32.3529
1139.5,32.3529
1142.57,57.8431
1145.64,28.4314
1148.71,22.549
1151.78,24.5098
1154.85,28.4314
1157.92,38.2353
1160.99,40.1961
1164.05,50
1167.12,20.5882
1170.19,32.3529
1173.26,26.4706
1176.33,16.6667
1179.4,22.549
1182.47,36.2745
1185.54,30.3922
1188.61,28.4314
1191.68,28.4314
1194.75,32.3529
1197.82,44.1176
1200.89,20.5882
1203.96,14.7059
1207.03,12.7451
1210.1,32.3529
1213.17,26.4706
1216.24,22.549
1219.31,26.4706
1222.37,34.3137
1225.44,18.6275
1228.51,18.6275
1231.58,20.5882
1234.65,26.4706
1237.72,2.94118
1240.79,0.980392
1243.86,0.980392
1246.93,0.980392
1250,0.980392
1253.07,0.980392
1256.14,0.980392
1259.21,0.980392
1262.28,0.980392
1265.35,0.980392
1268.42,0.980392
1271.49,0.980392
1274.56,0.980392
1277.63,0.980392
1280.69,0.980392
1283.76,0.980392
1286.83,0.980392
1289.9,0.980392
1292.97,0.980392
1296.04,0.980392
1299.11,0.980392
1302.18,0.980392
1305.25,0.980392
1308.32,0.980392
1311.39,0.980392
1314.46,0.980392
1317.53,0.980392
1320.6,0.980392
1323.67,0.980392
1326.74,0.980392
1329.81,0.980392
1332.88,0.980392
1335.95,0.980392
1339.01,0.980392
1342.08,0.980392
1345.15,0.980392
1348.22,0.980392
1351.29,0.980392
1354.36,0.980392
1357.43,0.980392
1360.5,0.980392
1363.57,0.980392
1366.64,0.980392
1369.71,0.980392
1372.78,0.980392
1375.85,0.980392
1378.92,0.980392
1381.99,0.980392
1385.06,0.980392
1388.13,0.980392
1391.2,0.980392
1394.26,0.980392
1397.33,0.980392
1400.4,0.980392
1403.47,0.980392
1406.54,0.980392
1409.61,0.980392
1412.68,0.980392
1415.75,0.980392
1418.82,0.980392
1421.89,0.980392
1424.96,0.980392
1428.03,0.980392
1431.1,0.980392
1434.17,0.980392
1437.24,0.980392
1440.31,0.980392
1443.38,0.980392
1446.45,0.980392
1449.52,0.980392
1452.58,0.980392
1455.65,0.980392
1458.72,0.980392
1461.79,0.980392
1464.86,0.980392
1467.93,0.980392
1471,0.980392
1474.07,0.980392
1477.14,0.980392
1480.21,0.980392
1483.28,0.980392
1486.35,0.980392
1489.42,0.980392
1492.49,0.980392
1495.56,0.980392
1498.63,0.980392
1501.7,0.980392
1504.77,0.980392
1507.84,0.980392
1510.9,0.980392
1513.97,0.980392
1517.04,0.980392
1520.11,0.980392
1523.18,0.980392
1526.25,0.980392
1529.32,0.980392
1532.39,0.980392
1535.46,0.980392
1538.53,0.980392
1541.6,0.980392
1544.67,0.980392
1547.74,0.980392
1550.81,0.980392
1553.88,0.980392
1556.95,0.980392
1560.02,0.980392
1563.09,0.980392
1566.16,0.980392
1569.22,0.980392
1572.29,0.980392
1575.36,0.980392
1578.43,0.980392
1581.5,0.980392
1584.57,0.980392
1587.64,0.980392
1590.71,0.980392
1593.78,0.980392
1596.85,0.980392
1599.92,0.980392
1602.99,0.980392
1606.06,0.980392
1609.13,0.980392
1612.2,0.980392
1615.27,0.980392
1618.34,0.980392
1621.41,0.980392
1624.47,0.980392
1627.54,0.980392
1630.61,0.980392
1633.68,0.980392
1636.75,0.980392
1639.82,0.980392
1642.89,0.980392
1645.96,0.980392
1649.03,0.980392
1652.1,0.980392
1655.17,0.980392
1658.24,0.980392
1661.31,0.980392
1664.38,0.980392
1667.45,0.980392
1670.52,0.980392
1673.59,0.980392
1676.66,0.980392
1679.73,0.980392
1682.79,0.980392
1685.86,0.980392
1688.93,0.980392
1692,0.980392
1695.07,0.980392
1698.14,0.980392
1701.21,0.980392
1704.28,0.980392
1707.35,0.980392
1710.42,0.980392
1713.49,0.980392
1716.56,0.980392
1719.63,0.980392
1722.7,0.980392
1725.77,0.980392
1728.84,0.980392
1731.91,0.980392
1734.98,0.980392
1738.05,0.980392
1741.11,0.980392
1744.18,0.980392
1747.25,0.980392
1750.32,0.980392
1753.39,0.980392
1756.46,0.980392
1759.53,0.980392
1762.6,0.980392
1765.67,0.980392
1768.74,0.980392
1771.81,0.980392
1774.88,0.980392
1777.95,0.980392
1781.02,0.980392
1784.09,0.980392
1787.16,0.980392
1790.23,0.980392
1793.3,0.980392
1796.37,0.980392
1799.43,0.980392
1802.5,0.980392
1805.57,0.980392
1808.64,0.980392
1811.71,0.980392
1814.78,0.980392
1817.85,0.980392
1820.92,0.980392
1823.99,0.980392
1827.06,0.980392
1830.13,0.980392
1833.2,0.980392
1836.27,0.980392
1839.34,0.980392
1842.41,0.980392
1845.48,0.980392
1848.55,0.980392
1851.62,0.980392
1854.68,0.980392
1857.75,0.980392
1860.82,0.980392
1863.89,0.980392
1866.96,0.980392
1870.03,0.980392
1873.1,0.980392
1876.17,0.980392
1879.24,0.980392
1882.31,0.980392
1885.38,0.980392
1888.45,0.980392
1891.52,0.980392
1894.59,0.980392
1897.66,0.980392
1900.73,0.980392
1903.8,0.980392
1906.87,0.980392
1909.94,0.980392
1913,0.980392
1916.07,0.980392
1919.14,0.980392
1922.21,0.980392
1925.28,0.980392
1928.35,0.980392
1931.42,0.980392
1934.49,0.980392
1937.56,0.980392
1940.63,0.980392
1943.7,0.980392
1946.77,0.980392
1949.84,0.980392
1952.91,0.980392
1955.98,0.980392
1959.05,0.980392
1962.12,0.980392
1965.19,0.980392
1968.26,0.980392
1971.32,0.980392
1974.39,0.980392
1977.46,0.980392
1980.53,0.980392
1983.6,0.980392
1986.67,0.980392
1989.74,0.980392
1992.81,0.980392
1995.88,0.980392
1998.95,0.980392
2002.02,0.980392
2005.09,0.980392
2008.16,0.980392
2011.23,0.980392
2014.3,0.980392
2017.37,0.980392
2020.44,0.980392
2023.51,0.980392
2026.58,0.980392
2029.64,0.980392
2032.71,0.980392
2035.78,0.980392
2038.85,0.980392
2041.92,0.980392
2044.99,0.980392
2048.06,0.980392
2051.13,0.980392
2054.2,0.980392
2057.27,0.980392
2060.34,0.980392
2063.41,0.980392
2066.48,0.980392
2069.55,0.980392
2072.62,0.980392
2075.69,0.980392
2078.76,0.980392
2081.83,0.980392
2084.89,0.980392
2087.96,0.980392
2091.03,0.980392
2094.1,0.980392
2097.17,0.980392
2100.24,0.980392
2103.31,0.980392
2106.38,0.980392
2109.45,0.980392
2112.52,0.980392
2115.59,0.980392
2118.66,0.980392
2121.73,0.980392
2124.8,0.980392
2127.87,0.980392
2130.94,0.980392
2134.01,0.980392
2137.08,0.980392
2140.15,0.980392
2143.21,0.980392
2146.28,0.980392
2149.35,0.980392
2152.42,0.980392
2155.49,0.980392
2158.56,0.980392
2161.63,0.980392
2164.7,0.980392
2167.77,0.980392
2170.84,0.980392
2173.91,0.980392
2176.98,0.980392
2180.05,0.980392
2183.12,0.980392
2186.19,0.980392
2189.26,0.980392
2192.33,0.980392
2195.4,0.980392
2198.47,0.980392
2201.53,0.980392
2204.6,0.980392
2207.67,0.980392
2210.74,0.980392
2213.81,0.980392
2216.88,0.980392
2219.95,0.980392
2223.02,0.980392
2226.09,0.980392
2229.16,0.980392
2232.23,0.980392
2235.3,0.980392
2238.37,0.980392
2241.44,0.980392
2244.51,0.980392
2247.58,0.980392
2250.65,0.980392
2253.72,0.980392
2256.79,0.980392
2259.85,0.980392
2262.92,0.980392
2265.99,0.980392
2269.06,0.980392
2272.13,0.980392
2275.2,0.980392
2278.27,0.980392
2281.34,0.980392
2284.41,0.980392
2287.48,0.980392
2290.55,0.980392
2293.62,0.980392
2296.69,0.980392
2299.76,0.980392
