,GP550R
RamanShit,Intensity
258.762,157.48
261.817,157.48
264.871,157.48
267.926,157.48
270.981,157.48
274.035,157.48
277.09,314.961
280.145,314.961
283.199,157.48
286.254,157.48
289.309,157.48
292.363,157.48
295.418,157.48
298.473,157.48
301.527,157.48
304.582,314.961
307.637,314.961
310.691,314.961
313.746,314.961
316.801,314.961
319.855,314.961
322.91,472.441
325.965,472.441
329.019,629.921
332.074,787.402
335.129,944.882
338.183,1574.8
341.238,3307.09
344.293,4566.93
347.347,5826.77
350.402,4566.93
353.457,4094.49
356.511,2677.17
359.566,1417.32
362.621,1102.36
365.675,1102.36
368.73,1102.36
371.785,787.402
374.839,629.921
377.894,314.961
380.949,314.961
384.003,314.961
387.058,314.961
390.113,157.48
393.167,157.48
396.222,157.48
399.277,157.48
402.331,157.48
405.386,157.48
408.441,314.961
411.495,314.961
414.55,472.441
417.605,314.961
420.659,314.961
423.714,314.961
426.768,314.961
429.823,472.441
432.878,787.402
435.932,1102.36
438.987,1102.36
442.042,1102.36
445.096,1102.36
448.151,1259.84
451.206,1417.32
454.26,1574.8
457.315,1732.28
460.37,2047.24
463.424,2362.2
466.479,4094.49
469.534,8818.9
472.588,20472.4
475.643,21574.8
478.698,11653.5
481.752,8661.42
484.807,4251.97
487.862,2519.69
490.916,1417.32
493.971,787.402
497.026,472.441
500.08,314.961
503.135,314.961
506.19,314.961
509.244,472.441
512.299,1102.36
515.354,1732.28
518.408,3149.61
521.463,3622.05
524.518,1574.8
527.572,1102.36
530.627,629.921
533.682,472.441
536.736,314.961
539.791,314.961
542.846,314.961
545.9,314.961
548.955,314.961
552.01,629.921
555.064,1417.32
558.119,2362.2
561.174,5511.81
564.228,5984.25
567.283,2519.69
570.338,2047.24
573.392,1259.84
576.447,1102.36
579.502,1259.84
582.556,1417.32
585.611,1574.8
588.666,1889.76
591.72,2204.72
594.775,2677.17
597.83,2992.13
600.884,3307.09
603.939,3779.53
606.994,4409.45
610.048,4881.89
613.103,5039.37
616.158,5039.37
619.212,4881.89
622.267,4566.93
625.322,3937.01
628.376,3307.09
631.431,2677.17
634.486,2362.2
637.54,2204.72
640.595,1889.76
643.65,1574.8
646.704,1574.8
649.759,1574.8
652.814,1574.8
655.868,1574.8
658.923,1574.8
661.977,1574.8
665.032,1889.76
668.087,2992.13
671.141,3779.53
674.196,5511.81
677.251,3779.53
680.305,3464.57
683.36,2362.2
686.415,1417.32
689.469,944.882
692.524,944.882
695.579,1102.36
698.633,1259.84
701.688,2047.24
704.743,2834.65
707.797,5984.25
710.852,6771.65
713.907,2677.17
716.961,1732.28
720.016,787.402
723.071,629.921
726.125,314.961
729.18,314.961
732.235,314.961
735.289,314.961
738.344,472.441
741.399,629.921
744.453,629.921
747.508,472.441
750.563,472.441
753.617,472.441
756.672,472.441
759.727,629.921
762.781,944.882
765.836,1732.28
768.891,3149.61
771.945,4881.89
775,8346.46
778.055,8818.9
781.109,5354.33
784.164,4251.97
787.219,2204.72
790.273,1102.36
793.328,629.921
796.383,314.961
799.437,314.961
802.492,157.48
805.547,157.48
808.601,157.48
811.656,314.961
814.711,314.961
817.765,472.441
820.82,472.441
823.875,472.441
826.929,472.441
829.984,472.441
833.039,472.441
836.093,472.441
839.148,314.961
842.203,314.961
845.257,314.961
848.312,157.48
851.367,157.48
854.421,157.48
857.476,157.48
860.531,157.48
863.585,157.48
866.64,157.48
869.695,157.48
872.749,157.48
875.804,157.48
878.859,157.48
881.913,157.48
884.968,157.48
888.023,157.48
891.077,314.961
894.132,314.961
897.186,314.961
900.241,472.441
903.296,629.921
906.35,944.882
909.405,1417.32
912.46,2204.72
915.514,3307.09
918.569,5039.37
921.624,8188.98
924.678,13228.3
927.733,16378
930.788,21102.4
933.842,16378
936.897,16063
939.952,13228.3
943.006,8346.46
946.061,5039.37
949.116,3464.57
952.17,2362.2
955.225,1732.28
958.28,1259.84
961.334,944.882
964.389,787.402
967.444,629.921
970.498,472.441
973.553,472.441
976.608,314.961
979.662,314.961
982.717,314.961
985.772,314.961
988.826,314.961
991.881,314.961
994.936,314.961
997.99,314.961
1001.05,314.961
1004.1,472.441
1007.15,472.441
1010.21,472.441
1013.26,472.441
1016.32,314.961
1019.37,314.961
1022.43,314.961
1025.48,314.961
1028.54,314.961
1031.59,314.961
1034.65,314.961
1037.7,314.961
1040.76,314.961
1043.81,314.961
1046.86,314.961
1049.92,314.961
1052.97,314.961
1056.03,314.961
1059.08,314.961
1062.14,157.48
1065.19,157.48
1068.25,157.48
1071.3,157.48
1074.36,157.48
1077.41,157.48
1080.47,157.48
1083.52,157.48
1086.58,157.48
1089.63,157.48
1092.68,157.48
1095.74,157.48
1098.79,314.961
1101.85,314.961
1104.9,314.961
1107.96,314.961
1111.01,314.961
1114.07,157.48
1117.12,157.48
1120.18,157.48
1123.23,157.48
1126.29,314.961
1129.34,314.961
1132.4,472.441
1135.45,629.921
1138.5,787.402
1141.56,944.882
1144.61,944.882
1147.67,1102.36
1150.72,1259.84
1153.78,1259.84
1156.83,1417.32
1159.89,1574.8
1162.94,1732.28
1166,1889.76
1169.05,1889.76
1172.11,1889.76
1175.16,1732.28
1178.22,1417.32
1181.27,1102.36
1184.32,787.402
1187.38,629.921
1190.43,472.441
1193.49,472.441
1196.54,314.961
1199.6,314.961
1202.65,314.961
1205.71,314.961
1208.76,472.441
1211.82,472.441
1214.87,629.921
1217.93,787.402
1220.98,944.882
1224.04,944.882
1227.09,944.882
1230.14,944.882
1233.2,944.882
1236.25,787.402
1239.31,629.921
1242.36,629.921
1245.42,472.441
1248.47,314.961
1251.53,314.961
1254.58,314.961
1257.64,314.961
1260.69,157.48
1263.75,157.48
1266.8,157.48
1269.86,314.961
1272.91,472.441
1275.96,629.921
1279.02,629.921
1282.07,629.921
1285.13,787.402
1288.18,787.402
1291.24,629.921
1294.29,629.921
1297.35,472.441
1300.4,314.961
1303.46,314.961
1306.51,314.961
1309.57,314.961
1312.62,314.961
1315.68,314.961
1318.73,314.961
1321.78,314.961
1324.84,472.441
1327.89,629.921
1330.95,787.402
1334,944.882
1337.06,1259.84
1340.11,1574.8
1343.17,1732.28
1346.22,1732.28
1349.28,1889.76
1352.33,1732.28
1355.39,1732.28
1358.44,1417.32
1361.5,1259.84
1364.55,1102.36
1367.6,944.882
1370.66,787.402
1373.71,629.921
1376.77,629.921
1379.82,472.441
1382.88,472.441
1385.93,314.961
1388.99,314.961
1392.04,314.961
1395.1,472.441
1398.15,472.441
1401.21,629.921
1404.26,629.921
1407.32,629.921
1410.37,629.921
1413.42,629.921
1416.48,629.921
1419.53,472.441
1422.59,472.441
1425.64,314.961
1428.7,157.48
1431.75,157.48
1434.81,157.48
1437.86,157.48
1440.92,157.48
1443.97,157.48
1447.03,157.48
1450.08,157.48
1453.14,157.48
1456.19,157.48
1459.24,157.48
1462.3,157.48
1465.35,157.48
1468.41,157.48
1471.46,157.48
1474.52,157.48
1477.57,157.48
1480.63,314.961
1483.68,314.961
1486.74,314.961
1489.79,314.961
1492.85,314.961
1495.9,314.961
1498.95,314.961
1502.01,314.961
1505.06,314.961
1508.12,157.48
1511.17,157.48
1514.23,157.48
1517.28,157.48
1520.34,157.48
1523.39,157.48
1526.45,157.48
1529.5,157.48
1532.56,157.48
1535.61,157.48
1538.67,157.48
1541.72,157.48
1544.77,314.961
1547.83,314.961
1550.88,314.961
1553.94,472.441
1556.99,472.441
1560.05,472.441
1563.1,472.441
1566.16,629.921
1569.21,629.921
1572.27,787.402
1575.32,787.402
1578.38,629.921
1581.43,629.921
1584.49,629.921
1587.54,629.921
1590.59,629.921
1593.65,629.921
1596.7,629.921
1599.76,629.921
1602.81,629.921
1605.87,629.921
1608.92,787.402
1611.98,787.402
1615.03,629.921
1618.09,629.921
1621.14,472.441
1624.2,314.961
1627.25,314.961
1630.31,157.48
1633.36,157.48
1636.41,157.48
1639.47,157.48
1642.52,157.48
1645.58,157.48
1648.63,157.48
1651.69,157.48
1654.74,157.48
1657.8,314.961
1660.85,314.961
1663.91,314.961
1666.96,314.961
1670.02,157.48
1673.07,157.48
1676.13,157.48
1679.18,157.48
1682.23,157.48
1685.29,157.48
1688.34,157.48
1691.4,157.48
1694.45,157.48
1697.51,157.48
1700.56,157.48
1703.62,157.48
1706.67,157.48
1709.73,157.48
1712.78,314.961
1715.84,157.48
1718.89,157.48
1721.95,157.48
1725,157.48
1728.05,157.48
1731.11,157.48
1734.16,157.48
1737.22,314.961
1740.27,157.48
1743.33,157.48
1746.38,157.48
1749.44,157.48
1752.49,157.48
1755.55,157.48
1758.6,157.48
1761.66,157.48
1764.71,157.48
1767.77,314.961
1770.82,314.961
1773.87,314.961
1776.93,314.961
1779.98,314.961
1783.04,157.48
1786.09,157.48
1789.15,157.48
1792.2,157.48
1795.26,157.48
1798.31,157.48
1801.37,314.961
1804.42,314.961
1807.48,314.961
1810.53,314.961
1813.59,314.961
1816.64,314.961
1819.69,314.961
1822.75,314.961
1825.8,314.961
1828.86,157.48
1831.91,157.48
1834.97,157.48
1838.02,157.48
1841.08,157.48
1844.13,157.48
1847.19,157.48
1850.24,314.961
1853.3,157.48
1856.35,157.48
1859.41,157.48
1862.46,157.48
1865.51,157.48
1868.57,314.961
1871.62,314.961
1874.68,314.961
1877.73,314.961
1880.79,314.961
1883.84,314.961
1886.9,157.48
1889.95,157.48
1893.01,157.48
1896.06,157.48
1899.12,314.961
1902.17,157.48
1905.23,157.48
1908.28,157.48
1911.33,157.48
1914.39,157.48
1917.44,157.48
1920.5,157.48
1923.55,157.48
1926.61,157.48
1929.66,157.48
1932.72,157.48
1935.77,157.48
1938.83,157.48
1941.88,157.48
1944.94,157.48
1947.99,157.48
1951.05,157.48
1954.1,157.48
1957.15,157.48
1960.21,157.48
1963.26,314.961
1966.32,314.961
1969.37,314.961
1972.43,314.961
1975.48,314.961
1978.54,314.961
1981.59,314.961
1984.65,314.961
1987.7,314.961
1990.76,314.961
1993.81,314.961
1996.86,314.961
1999.92,314.961
2002.97,314.961
2006.03,314.961
2009.08,314.961
2012.14,314.961
2015.19,314.961
2018.25,314.961
2021.3,314.961
2024.36,314.961
2027.41,314.961
2030.47,314.961
2033.52,314.961
2036.58,314.961
2039.63,314.961
2042.68,314.961
2045.74,314.961
2048.79,314.961
2051.85,314.961
2054.9,314.961
2057.96,314.961
2061.01,314.961
2064.07,314.961
2067.12,314.961
2070.18,157.48
2073.23,157.48
2076.29,157.48
2079.34,157.48
2082.4,157.48
2085.45,157.48
2088.5,314.961
2091.56,157.48
2094.61,157.48
2097.67,157.48
2100.72,157.48
2103.78,157.48
2106.83,157.48
2109.89,314.961
2112.94,314.961
2116,314.961
2119.05,314.961
2122.11,314.961
2125.16,314.961
2128.22,314.961
2131.27,314.961
2134.32,314.961
2137.38,314.961
2140.43,314.961
2143.49,314.961
2146.54,314.961
2149.6,314.961
2152.65,314.961
2155.71,157.48
2158.76,157.48
2161.82,157.48
2164.87,157.48
2167.93,157.48
2170.98,157.48
2174.04,157.48
2177.09,157.48
2180.14,157.48
2183.2,157.48
2186.25,157.48
2189.31,157.48
2192.36,157.48
2195.42,157.48
2198.47,157.48
2201.53,157.48
2204.58,157.48
2207.64,157.48
2210.69,157.48
2213.75,314.961
2216.8,314.961
2219.86,314.961
2222.91,314.961
2225.96,314.961
2229.02,314.961
2232.07,314.961
2235.13,314.961
2238.18,314.961
2241.24,314.961
2244.29,314.961
2247.35,314.961
2250.4,314.961
2253.46,314.961
2256.51,314.961
2259.57,314.961
2262.62,314.961
2265.68,314.961
2268.73,314.961
2271.78,314.961
2274.84,314.961
2277.89,314.961
2280.95,314.961
2284,314.961
2287.06,314.961
2290.11,314.961
2293.17,314.961
