,GP550R
RamanShit,Intensity
255.344,525.237
258.424,298.107
261.504,298.107
264.583,298.107
267.663,298.107
270.743,298.107
273.822,326.498
276.902,354.89
279.982,411.672
283.062,496.845
286.141,610.41
289.221,695.584
292.301,723.975
295.38,752.366
298.46,780.757
301.54,723.975
304.62,695.584
307.699,638.801
310.779,638.801
313.859,610.41
316.938,667.192
320.018,695.584
323.098,695.584
326.178,695.584
329.257,667.192
332.337,638.801
335.417,638.801
338.496,610.41
341.576,638.801
344.656,667.192
347.736,780.757
350.815,922.713
353.895,1007.89
356.975,1007.89
360.054,1007.89
363.134,1007.89
366.214,922.713
369.293,837.539
372.373,695.584
375.453,582.019
378.533,525.237
381.612,440.063
384.692,440.063
387.772,468.454
390.851,496.845
393.931,525.237
397.011,553.628
400.091,496.845
403.17,411.672
406.25,298.107
409.33,212.934
412.409,184.543
415.489,184.543
418.569,184.543
421.649,184.543
424.728,184.543
427.808,212.934
430.888,241.325
433.967,298.107
437.047,411.672
440.127,525.237
443.207,383.281
446.286,383.281
449.366,269.716
452.446,184.543
455.525,156.151
458.605,184.543
461.685,241.325
464.764,354.89
467.844,468.454
470.924,723.975
474.004,865.931
477.083,922.713
480.163,979.495
483.243,809.148
486.322,723.975
489.402,667.192
492.482,610.41
495.562,638.801
498.641,667.192
501.721,723.975
504.801,809.148
507.88,837.539
510.96,922.713
514.04,809.148
517.12,780.757
520.199,695.584
523.279,610.41
526.359,553.628
529.438,496.845
532.518,440.063
535.598,468.454
538.678,468.454
541.757,468.454
544.837,496.845
547.917,496.845
550.996,553.628
554.076,610.41
557.156,638.801
560.236,695.584
563.315,752.366
566.395,780.757
569.475,780.757
572.554,780.757
575.634,780.757
578.714,723.975
581.793,610.41
584.873,525.237
587.953,411.672
591.033,326.498
594.112,326.498
597.192,326.498
600.272,326.498
603.351,326.498
606.431,326.498
609.511,326.498
612.591,326.498
615.67,326.498
618.75,298.107
621.83,241.325
624.909,241.325
627.989,241.325
631.069,241.325
634.149,269.716
637.228,269.716
640.308,326.498
643.388,269.716
646.467,269.716
649.547,241.325
652.627,269.716
655.707,298.107
658.786,411.672
661.866,525.237
664.946,553.628
668.025,553.628
671.105,525.237
674.185,525.237
677.264,525.237
680.344,496.845
683.424,525.237
686.504,525.237
689.583,638.801
692.663,752.366
695.743,894.322
698.822,723.975
701.902,638.801
704.982,440.063
708.062,383.281
711.141,326.498
714.221,326.498
717.301,298.107
720.38,269.716
723.46,269.716
726.54,298.107
729.62,411.672
732.699,525.237
735.779,695.584
738.859,1093.06
741.938,1348.58
745.018,1376.97
748.098,1575.71
751.178,1348.58
754.257,1320.19
757.337,1206.62
760.417,1007.89
763.496,809.148
766.576,638.801
769.656,411.672
772.736,241.325
775.815,184.543
778.895,212.934
781.975,241.325
785.054,269.716
788.134,298.107
791.214,354.89
794.293,411.672
797.373,610.41
800.453,723.975
803.533,809.148
806.612,440.063
809.692,440.063
812.772,411.672
815.851,383.281
818.931,354.89
822.011,298.107
825.091,269.716
828.17,241.325
831.25,241.325
834.33,241.325
837.409,212.934
840.489,212.934
843.569,212.934
846.649,212.934
849.728,212.934
852.808,184.543
855.888,184.543
858.967,156.151
862.047,184.543
865.127,184.543
868.207,184.543
871.286,241.325
874.366,383.281
877.446,525.237
880.525,553.628
883.605,525.237
886.685,496.845
889.764,440.063
892.844,326.498
895.924,212.934
899.004,70.9779
902.083,184.543
905.163,212.934
908.243,241.325
911.322,269.716
914.402,383.281
917.482,553.628
920.562,752.366
923.641,894.322
926.721,951.104
929.801,1064.67
932.88,894.322
935.96,723.975
939.04,440.063
942.12,326.498
945.199,298.107
948.279,269.716
951.359,354.89
954.438,383.281
957.518,468.454
960.598,553.628
963.678,582.019
966.757,582.019
969.837,582.019
972.917,610.41
975.996,610.41
979.076,610.41
982.156,582.019
985.236,553.628
988.315,440.063
991.395,298.107
994.475,241.325
997.554,269.716
1000.63,269.716
1003.71,354.89
1006.79,496.845
1009.87,610.41
1012.95,610.41
1016.03,638.801
1019.11,638.801
1022.19,638.801
1025.27,610.41
1028.35,610.41
1031.43,610.41
1034.51,638.801
1037.59,638.801
1040.67,667.192
1043.75,752.366
1046.83,752.366
1049.91,780.757
1052.99,780.757
1056.07,780.757
1059.15,780.757
1062.23,780.757
1065.31,809.148
1068.39,865.931
1071.47,894.322
1074.55,922.713
1077.63,951.104
1080.71,1007.89
1083.79,1093.06
1086.87,1121.45
1089.95,1376.97
1093.03,1433.75
1096.11,979.495
1099.18,752.366
1102.26,553.628
1105.34,411.672
1108.42,298.107
1111.5,269.716
1114.58,212.934
1117.66,156.151
1120.74,241.325
1123.82,269.716
1126.9,468.454
1129.98,610.41
1133.06,695.584
1136.14,610.41
1139.22,610.41
1142.3,525.237
1145.38,440.063
1148.46,411.672
1151.54,383.281
1154.62,326.498
1157.7,326.498
1160.78,326.498
1163.86,326.498
1166.94,354.89
1170.02,440.063
1173.1,610.41
1176.18,723.975
1179.26,837.539
1182.34,1036.28
1185.42,1149.84
1188.5,1178.23
1191.58,1178.23
1194.66,1178.23
1197.74,1178.23
1200.82,1178.23
1203.89,1121.45
1206.97,1206.62
1210.05,1320.19
1213.13,894.322
1216.21,780.757
1219.29,695.584
1222.37,638.801
1225.45,582.019
1228.53,553.628
1231.61,553.628
1234.69,582.019
1237.77,582.019
1240.85,610.41
1243.93,582.019
1247.01,582.019
1250.09,468.454
1253.17,326.498
1256.25,241.325
1259.33,212.934
1262.41,184.543
1265.49,184.543
1268.57,184.543
1271.65,184.543
1274.73,212.934
1277.81,212.934
1280.89,212.934
1283.97,241.325
1287.05,269.716
1290.13,269.716
1293.21,383.281
1296.29,496.845
1299.37,610.41
1302.45,667.192
1305.53,496.845
1308.61,468.454
1311.68,411.672
1314.76,383.281
1317.84,326.498
1320.92,269.716
1324,241.325
1327.08,212.934
1330.16,184.543
1333.24,184.543
1336.32,184.543
1339.4,184.543
1342.48,184.543
1345.56,212.934
1348.64,269.716
1351.72,383.281
1354.8,468.454
1357.88,468.454
1360.96,525.237
1364.04,440.063
1367.12,440.063
1370.2,383.281
1373.28,383.281
1376.36,383.281
1379.44,383.281
1382.52,354.89
1385.6,326.498
1388.68,326.498
1391.76,326.498
1394.84,269.716
1397.92,326.498
1401,354.89
1404.08,496.845
1407.16,752.366
1410.24,951.104
1413.32,1036.28
1416.39,1064.67
1419.47,1121.45
1422.55,1178.23
1425.63,1206.62
1428.71,1348.58
1431.79,1831.23
1434.87,2512.62
1437.95,2995.27
1441.03,3137.22
1444.11,3165.62
1447.19,3165.62
1450.27,3222.4
1453.35,3052.05
1456.43,2739.75
1459.51,2427.44
1462.59,2285.49
1465.67,2257.1
1468.75,2228.71
1471.83,2058.36
1474.91,1575.71
1477.99,1036.28
1481.07,667.192
1484.15,440.063
1487.23,354.89
1490.31,298.107
1493.39,212.934
1496.47,184.543
1499.55,156.151
1502.63,156.151
1505.71,99.3691
1508.79,156.151
1511.87,184.543
1514.95,184.543
1518.03,184.543
1521.11,184.543
1524.18,184.543
1527.26,184.543
1530.34,156.151
1533.42,156.151
1536.5,156.151
1539.58,156.151
1542.66,156.151
1545.74,156.151
1548.82,156.151
1551.9,156.151
1554.98,156.151
1558.06,156.151
1561.14,156.151
1564.22,156.151
1567.3,156.151
1570.38,156.151
1573.46,156.151
1576.54,156.151
1579.62,156.151
1582.7,156.151
1585.78,156.151
1588.86,156.151
1591.94,184.543
1595.02,184.543
1598.1,184.543
1601.18,241.325
1604.26,354.89
1607.34,468.454
1610.42,582.019
1613.5,667.192
1616.58,723.975
1619.66,780.757
1622.74,894.322
1625.82,1121.45
1628.89,1632.49
1631.97,2654.57
1635.05,4102.52
1638.13,5692.43
1641.21,6572.56
1644.29,7566.25
1647.37,7764.98
1650.45,6544.16
1653.53,5777.6
1656.61,4414.83
1659.69,3364.35
1662.77,2484.23
1665.85,2001.58
1668.93,1746.06
1672.01,1235.02
1675.09,894.322
1678.17,695.584
1681.25,468.454
1684.33,383.281
1687.41,326.498
1690.49,298.107
1693.57,298.107
1696.65,298.107
1699.73,298.107
1702.81,326.498
1705.89,354.89
1708.97,411.672
1712.05,468.454
1715.13,553.628
1718.21,610.41
1721.29,667.192
1724.37,582.019
1727.45,525.237
1730.53,411.672
1733.61,354.89
1736.68,269.716
1739.76,212.934
1742.84,184.543
1745.92,156.151
1749,156.151
1752.08,156.151
1755.16,156.151
1758.24,156.151
1761.32,156.151
1764.4,156.151
1767.48,156.151
1770.56,156.151
1773.64,156.151
1776.72,184.543
1779.8,184.543
1782.88,184.543
1785.96,184.543
1789.04,184.543
1792.12,184.543
1795.2,184.543
1798.28,156.151
1801.36,127.76
1804.44,127.76
1807.52,127.76
1810.6,156.151
1813.68,156.151
1816.76,156.151
1819.84,156.151
1822.92,184.543
1826,184.543
1829.08,184.543
1832.16,184.543
1835.24,184.543
1838.32,184.543
1841.39,184.543
1844.47,184.543
1847.55,184.543
1850.63,156.151
1853.71,156.151
1856.79,156.151
1859.87,156.151
1862.95,184.543
1866.03,184.543
1869.11,184.543
1872.19,184.543
1875.27,184.543
1878.35,184.543
1881.43,184.543
1884.51,184.543
1887.59,156.151
1890.67,156.151
1893.75,184.543
1896.83,184.543
1899.91,184.543
1902.99,184.543
1906.07,184.543
1909.15,184.543
1912.23,184.543
1915.31,184.543
1918.39,184.543
1921.47,184.543
1924.55,184.543
1927.63,184.543
1930.71,184.543
1933.79,184.543
1936.87,184.543
1939.95,184.543
1943.03,184.543
1946.11,184.543
1949.18,184.543
1952.26,184.543
1955.34,184.543
1958.42,184.543
1961.5,184.543
1964.58,184.543
1967.66,184.543
1970.74,184.543
1973.82,184.543
1976.9,184.543
1979.98,184.543
1983.06,156.151
1986.14,156.151
1989.22,156.151
1992.3,184.543
1995.38,42.5868
1998.46,42.5868
