,GP550R
RamanShit,Intensity
261.905,118.75
264.952,118.75
268,118.75
271.048,118.75
274.095,118.75
277.143,118.75
280.19,118.75
283.238,118.75
286.286,118.75
289.333,131.25
292.381,168.75
295.429,193.75
298.476,206.25
301.524,231.25
304.571,281.25
307.619,306.25
310.667,331.25
313.714,306.25
316.762,293.75
319.81,268.75
322.857,193.75
325.905,143.75
328.952,131.25
332,143.75
335.048,168.75
338.095,206.25
341.143,281.25
344.19,406.25
347.238,518.75
350.286,643.75
353.333,756.25
356.381,831.25
359.429,868.75
362.476,906.25
365.524,1006.25
368.571,1093.75
371.619,1393.75
374.667,1331.25
377.714,1093.75
380.762,1081.25
383.81,1081.25
386.857,1056.25
389.905,1081.25
392.952,1106.25
396,1206.25
399.048,1293.75
402.095,1468.75
405.143,2081.25
408.19,2506.25
411.238,3556.25
414.286,3481.25
417.333,2143.75
420.381,1756.25
423.429,1668.75
426.476,1581.25
429.524,1518.75
432.571,1456.25
435.619,1418.75
438.667,1381.25
441.714,1343.75
444.762,1331.25
447.81,1293.75
450.857,1256.25
453.905,1218.75
456.952,1193.75
460,1181.25
463.048,1181.25
466.095,1168.75
469.143,1168.75
472.19,1131.25
475.238,1081.25
478.286,1031.25
481.333,993.75
484.381,968.75
487.429,943.75
490.476,906.25
493.524,881.25
496.571,856.25
499.619,818.75
502.667,781.25
505.714,756.25
508.762,718.75
511.81,706.25
514.857,693.75
517.905,693.75
520.952,693.75
524,693.75
527.048,693.75
530.095,693.75
533.143,706.25
536.19,718.75
539.238,693.75
542.286,681.25
545.333,668.75
548.381,643.75
551.429,606.25
554.476,556.25
557.524,543.75
560.571,518.75
563.619,493.75
566.667,468.75
569.714,443.75
572.762,368.75
575.81,306.25
578.857,268.75
581.905,243.75
584.952,231.25
588,243.75
591.048,243.75
594.095,243.75
597.143,256.25
600.19,268.75
603.238,281.25
606.286,293.75
609.333,318.75
612.381,356.25
615.429,356.25
618.476,356.25
621.524,368.75
624.571,393.75
627.619,406.25
630.667,493.75
633.714,643.75
636.762,731.25
639.81,893.75
642.857,718.75
645.905,706.25
648.952,593.75
652,468.75
655.048,456.25
658.095,456.25
661.143,456.25
664.19,456.25
667.238,468.75
670.286,481.25
673.333,493.75
676.381,506.25
679.429,518.75
682.476,518.75
685.524,506.25
688.571,506.25
691.619,506.25
694.667,506.25
697.714,506.25
700.762,506.25
703.81,506.25
706.857,506.25
709.905,518.75
712.952,531.25
716,543.75
719.048,568.75
722.095,618.75
725.143,643.75
728.19,681.25
731.238,706.25
734.286,781.25
737.333,843.75
740.381,868.75
743.429,893.75
746.476,931.25
749.524,868.75
752.571,818.75
755.619,756.25
758.667,718.75
761.714,681.25
764.762,656.25
767.81,631.25
770.857,631.25
773.905,631.25
776.952,631.25
780,631.25
783.048,656.25
786.095,656.25
789.143,656.25
792.19,656.25
795.238,668.75
798.286,668.75
801.333,668.75
804.381,656.25
807.429,643.75
810.476,618.75
813.524,581.25
816.571,543.75
819.619,518.75
822.667,481.25
825.714,443.75
828.762,418.75
831.81,406.25
834.857,381.25
837.905,368.75
840.952,368.75
844,343.75
847.048,331.25
850.095,331.25
853.143,331.25
856.19,306.25
859.238,306.25
862.286,293.75
865.333,293.75
868.381,293.75
871.429,281.25
874.476,268.75
877.524,256.25
880.571,243.75
883.619,231.25
886.667,218.75
889.714,218.75
892.762,218.75
895.81,218.75
898.857,218.75
901.905,218.75
904.952,218.75
908,218.75
911.048,218.75
914.095,206.25
917.143,193.75
920.19,168.75
923.238,143.75
926.286,131.25
929.333,131.25
932.381,143.75
935.429,156.25
938.476,181.25
941.524,181.25
944.571,193.75
947.619,206.25
950.667,206.25
953.714,206.25
956.762,206.25
959.81,206.25
962.857,193.75
965.905,181.25
968.952,156.25
972,156.25
975.048,156.25
978.095,143.75
981.143,131.25
984.19,131.25
987.238,143.75
990.286,168.75
993.333,131.25
996.381,131.25
999.429,131.25
1002.48,131.25
1005.52,131.25
1008.57,131.25
1011.62,131.25
1014.67,118.75
1017.71,131.25
1020.76,131.25
1023.81,131.25
1026.86,143.75
1029.9,156.25
1032.95,156.25
1036,156.25
1039.05,181.25
1042.1,193.75
1045.14,206.25
1048.19,206.25
1051.24,206.25
1054.29,206.25
1057.33,206.25
1060.38,193.75
1063.43,181.25
1066.48,143.75
1069.52,143.75
1072.57,131.25
1075.62,131.25
1078.67,131.25
1081.71,131.25
1084.76,131.25
1087.81,131.25
1090.86,131.25
1093.9,118.75
1096.95,131.25
1100,131.25
1103.05,143.75
1106.1,156.25
1109.14,156.25
1112.19,156.25
1115.24,156.25
1118.29,156.25
1121.33,181.25
1124.38,193.75
1127.43,168.75
1130.48,168.75
1133.52,143.75
1136.57,131.25
1139.62,131.25
1142.67,131.25
1145.71,131.25
1148.76,131.25
1151.81,131.25
1154.86,131.25
1157.9,131.25
1160.95,143.75
1164,143.75
1167.05,143.75
1170.1,143.75
1173.14,156.25
1176.19,156.25
1179.24,143.75
1182.29,143.75
1185.33,143.75
1188.38,143.75
1191.43,131.25
1194.48,131.25
1197.52,131.25
1200.57,131.25
1203.62,131.25
1206.67,131.25
1209.71,131.25
1212.76,118.75
1215.81,118.75
1218.86,118.75
1221.9,118.75
1224.95,118.75
1228,118.75
1231.05,118.75
1234.1,118.75
1237.14,131.25
1240.19,131.25
1243.24,131.25
1246.29,131.25
1249.33,131.25
1252.38,118.75
1255.43,118.75
1258.48,118.75
1261.52,118.75
1264.57,118.75
1267.62,118.75
1270.67,118.75
1273.71,118.75
1276.76,131.25
1279.81,131.25
1282.86,131.25
1285.9,143.75
1288.95,143.75
1292,143.75
1295.05,143.75
1298.1,131.25
1301.14,131.25
1304.19,131.25
1307.24,118.75
1310.29,118.75
1313.33,118.75
1316.38,118.75
1319.43,118.75
1322.48,118.75
1325.52,118.75
1328.57,118.75
1331.62,118.75
1334.67,118.75
1337.71,118.75
1340.76,118.75
1343.81,118.75
1346.86,118.75
1349.9,118.75
1352.95,118.75
1356,118.75
1359.05,118.75
1362.1,118.75
1365.14,118.75
1368.19,118.75
1371.24,118.75
1374.29,118.75
1377.33,118.75
1380.38,118.75
1383.43,118.75
1386.48,118.75
1389.52,118.75
1392.57,118.75
1395.62,118.75
1398.67,118.75
1401.71,131.25
1404.76,131.25
1407.81,131.25
1410.86,131.25
1413.9,131.25
1416.95,131.25
1420,131.25
1423.05,131.25
1426.1,131.25
1429.14,131.25
1432.19,131.25
1435.24,118.75
1438.29,131.25
1441.33,131.25
1444.38,131.25
1447.43,131.25
1450.48,131.25
1453.52,131.25
1456.57,118.75
1459.62,118.75
1462.67,118.75
1465.71,118.75
1468.76,118.75
1471.81,118.75
1474.86,118.75
1477.9,118.75
1480.95,118.75
1484,118.75
1487.05,118.75
1490.1,118.75
1493.14,118.75
1496.19,118.75
1499.24,118.75
1502.29,118.75
1505.33,118.75
1508.38,118.75
1511.43,118.75
1514.48,118.75
1517.52,118.75
1520.57,118.75
1523.62,118.75
1526.67,118.75
1529.71,118.75
1532.76,118.75
1535.81,118.75
1538.86,118.75
1541.9,118.75
1544.95,118.75
1548,118.75
1551.05,131.25
1554.1,131.25
1557.14,131.25
1560.19,131.25
1563.24,131.25
1566.29,131.25
1569.33,131.25
1572.38,118.75
1575.43,118.75
1578.48,118.75
1581.52,118.75
1584.57,118.75
1587.62,118.75
1590.67,118.75
1593.71,118.75
1596.76,118.75
1599.81,118.75
1602.86,118.75
1605.9,118.75
1608.95,118.75
1612,118.75
1615.05,118.75
1618.1,118.75
1621.14,131.25
1624.19,143.75
1627.24,143.75
1630.29,143.75
1633.33,143.75
1636.38,143.75
1639.43,143.75
1642.48,143.75
1645.52,156.25
1648.57,156.25
1651.62,156.25
1654.67,156.25
1657.71,156.25
1660.76,156.25
1663.81,156.25
1666.86,143.75
1669.9,131.25
1672.95,131.25
1676,143.75
1679.05,143.75
1682.1,143.75
1685.14,143.75
1688.19,143.75
1691.24,143.75
1694.29,156.25
1697.33,156.25
1700.38,156.25
1703.43,156.25
1706.48,156.25
1709.52,143.75
1712.57,143.75
1715.62,143.75
1718.67,131.25
1721.71,143.75
1724.76,143.75
1727.81,143.75
1730.86,143.75
1733.9,156.25
1736.95,168.75
1740,181.25
1743.05,181.25
1746.1,181.25
1749.14,181.25
1752.19,181.25
1755.24,181.25
1758.29,181.25
1761.33,181.25
1764.38,193.75
1767.43,206.25
1770.48,206.25
1773.52,218.75
1776.57,231.25
1779.62,231.25
1782.67,243.75
1785.71,256.25
1788.76,268.75
1791.81,281.25
1794.86,293.75
1797.9,293.75
1800.95,306.25
1804,306.25
1807.05,318.75
1810.1,318.75
1813.14,331.25
1816.19,343.75
1819.24,331.25
1822.29,331.25
1825.33,331.25
1828.38,331.25
1831.43,331.25
1834.48,331.25
1837.52,343.75
1840.57,331.25
1843.62,331.25
1846.67,331.25
1849.71,331.25
1852.76,331.25
1855.81,331.25
1858.86,331.25
1861.9,343.75
1864.95,343.75
1868,356.25
1871.05,356.25
1874.1,356.25
1877.14,368.75
1880.19,368.75
1883.24,368.75
1886.29,381.25
1889.33,381.25
1892.38,381.25
1895.43,381.25
1898.48,381.25
1901.52,381.25
1904.57,381.25
1907.62,381.25
1910.67,368.75
1913.71,368.75
1916.76,381.25
1919.81,381.25
1922.86,381.25
1925.9,381.25
1928.95,381.25
1932,381.25
1935.05,381.25
1938.1,381.25
1941.14,381.25
1944.19,381.25
1947.24,381.25
1950.29,381.25
1953.33,381.25
1956.38,381.25
1959.43,381.25
1962.48,381.25
1965.52,393.75
1968.57,393.75
1971.62,393.75
1974.67,393.75
1977.71,381.25
1980.76,368.75
1983.81,368.75
1986.86,368.75
1989.9,368.75
1992.95,368.75
