,GP550R
RamanShit,Intensity
261.817,-177.866
264.871,-177.866
267.926,-177.866
270.981,-177.866
274.035,-177.866
277.09,-177.866
280.145,-177.866
283.199,-177.866
286.254,98.8142
289.309,375.494
292.363,652.174
295.418,1758.89
298.473,2312.25
301.527,2312.25
304.582,2312.25
307.637,2035.57
310.691,2035.57
313.746,2035.57
316.801,2312.25
319.855,2588.93
322.91,3695.65
325.965,4802.37
329.019,7015.81
332.074,11719.4
335.129,20849.8
338.183,30810.3
341.238,51837.9
344.293,55158.1
347.347,34407.1
350.402,27766.8
353.457,16699.6
356.511,10336
359.566,6739.13
362.621,4525.69
365.675,2865.61
368.73,2312.25
371.785,2312.25
374.839,2588.93
377.894,3142.29
380.949,3695.65
384.003,3695.65
387.058,3972.33
390.113,4249.01
393.167,5355.73
396.222,7845.85
399.277,12549.4
402.331,13102.8
405.386,10059.3
408.441,10059.3
411.495,9229.25
414.55,10059.3
417.605,10336
420.659,12549.4
423.714,9505.93
426.768,7292.49
429.823,3418.97
432.878,2035.57
435.932,1758.89
438.987,2312.25
442.042,2588.93
445.096,3418.97
448.151,2588.93
451.206,1758.89
454.26,652.174
457.315,375.494
460.37,98.8142
463.424,98.8142
466.479,98.8142
469.534,98.8142
472.588,98.8142
475.643,98.8142
478.698,98.8142
481.752,98.8142
484.807,98.8142
487.862,98.8142
490.916,98.8142
493.971,98.8142
497.026,-177.866
500.08,-177.866
503.135,-177.866
506.19,98.8142
509.244,375.494
512.299,928.854
515.354,1758.89
518.408,2588.93
521.463,3142.29
524.518,3142.29
527.572,3142.29
530.627,3142.29
533.682,2865.61
536.736,2865.61
539.791,2865.61
542.846,2588.93
545.9,2588.93
548.955,2588.93
552.01,2588.93
555.064,2035.57
558.119,1205.53
561.174,652.174
564.228,375.494
567.283,375.494
570.338,375.494
573.392,375.494
576.447,652.174
579.502,652.174
582.556,652.174
585.611,375.494
588.666,375.494
591.72,98.8142
594.775,98.8142
597.83,98.8142
600.884,98.8142
603.939,98.8142
606.994,98.8142
610.048,98.8142
613.103,98.8142
616.158,98.8142
619.212,98.8142
622.267,98.8142
625.322,98.8142
628.376,98.8142
631.431,375.494
634.486,375.494
637.54,652.174
640.595,928.854
643.65,1482.21
646.704,2588.93
649.759,3972.33
652.814,6185.77
655.868,10336
658.923,16699.6
661.977,25830
665.032,26660.1
668.087,20019.8
671.141,20019.8
674.196,17253
677.251,20019.8
680.305,22233.2
683.36,24446.6
686.415,30256.9
689.469,24446.6
692.524,21403.2
695.579,14486.2
698.633,8122.53
701.688,4802.37
704.743,2865.61
707.797,1482.21
710.852,1205.53
713.907,652.174
716.961,375.494
720.016,98.8142
723.071,98.8142
726.125,98.8142
729.18,98.8142
732.235,98.8142
735.289,98.8142
738.344,98.8142
741.399,375.494
744.453,652.174
747.508,652.174
750.563,928.854
753.617,928.854
756.672,652.174
759.727,652.174
762.781,98.8142
765.836,98.8142
768.891,-177.866
771.945,-177.866
775,-177.866
778.055,-177.866
781.109,-177.866
784.164,98.8142
787.219,98.8142
790.273,98.8142
793.328,98.8142
796.383,98.8142
799.437,98.8142
802.492,98.8142
805.547,98.8142
808.601,98.8142
811.656,98.8142
814.711,98.8142
817.765,98.8142
820.82,98.8142
823.875,98.8142
826.929,98.8142
829.984,98.8142
833.039,98.8142
836.093,98.8142
839.148,375.494
842.203,652.174
845.257,928.854
848.312,1482.21
851.367,2035.57
854.421,2588.93
857.476,2035.57
860.531,1758.89
863.585,928.854
866.64,652.174
869.695,375.494
872.749,98.8142
875.804,98.8142
878.859,98.8142
881.913,98.8142
884.968,98.8142
888.023,98.8142
891.077,98.8142
894.132,98.8142
897.186,98.8142
900.241,98.8142
903.296,98.8142
906.35,98.8142
909.405,98.8142
912.46,98.8142
915.514,98.8142
918.569,375.494
921.624,652.174
924.678,1205.53
927.733,1758.89
930.788,2035.57
933.842,2035.57
936.897,1758.89
939.952,1758.89
943.006,1482.21
946.061,928.854
949.116,652.174
952.17,375.494
955.225,375.494
958.28,98.8142
961.334,98.8142
964.389,98.8142
967.444,-177.866
970.498,-177.866
973.553,-177.866
976.608,-177.866
979.662,98.8142
982.717,98.8142
985.772,98.8142
988.826,375.494
991.881,652.174
994.936,928.854
997.99,1205.53
1001.05,2035.57
1004.1,3142.29
1007.15,5909.09
1010.21,9505.93
1013.26,13102.8
1016.32,12272.7
1019.37,11996
1022.43,12549.4
1025.48,12549.4
1028.54,14209.5
1031.59,15869.6
1034.65,17806.3
1037.7,15869.6
1040.76,14486.2
1043.81,11166
1046.86,7569.17
1049.92,4802.37
1052.97,3142.29
1056.03,2035.57
1059.08,1482.21
1062.14,1205.53
1065.19,928.854
1068.25,652.174
1071.3,375.494
1074.36,98.8142
1077.41,98.8142
1080.47,98.8142
1083.52,98.8142
1086.58,98.8142
1089.63,-177.866
1092.68,-177.866
1095.74,-177.866
1098.79,-177.866
1101.85,98.8142
1104.9,98.8142
1107.96,98.8142
1111.01,98.8142
1114.07,98.8142
1117.12,98.8142
1120.18,98.8142
1123.23,98.8142
1126.29,98.8142
1129.34,98.8142
1132.4,98.8142
1135.45,98.8142
1138.5,98.8142
1141.56,98.8142
1144.61,98.8142
1147.67,98.8142
1150.72,98.8142
1153.78,98.8142
1156.83,98.8142
1159.89,98.8142
1162.94,98.8142
1166,98.8142
1169.05,98.8142
1172.11,98.8142
1175.16,98.8142
1178.22,98.8142
1181.27,98.8142
1184.32,98.8142
1187.38,98.8142
1190.43,98.8142
1193.49,98.8142
1196.54,98.8142
1199.6,98.8142
1202.65,98.8142
1205.71,98.8142
1208.76,98.8142
1211.82,98.8142
1214.87,98.8142
1217.93,98.8142
1220.98,98.8142
1224.04,98.8142
1227.09,98.8142
1230.14,98.8142
1233.2,98.8142
1236.25,98.8142
1239.31,98.8142
1242.36,98.8142
1245.42,98.8142
1248.47,98.8142
1251.53,98.8142
1254.58,98.8142
1257.64,98.8142
1260.69,98.8142
1263.75,98.8142
1266.8,98.8142
1269.86,98.8142
1272.91,98.8142
1275.96,98.8142
1279.02,98.8142
1282.07,98.8142
1285.13,98.8142
1288.18,98.8142
1291.24,98.8142
1294.29,98.8142
1297.35,98.8142
1300.4,98.8142
1303.46,98.8142
1306.51,98.8142
1309.57,98.8142
1312.62,98.8142
1315.68,98.8142
1318.73,98.8142
1321.78,98.8142
1324.84,98.8142
1327.89,98.8142
1330.95,98.8142
1334,98.8142
1337.06,98.8142
1340.11,98.8142
1343.17,98.8142
1346.22,98.8142
1349.28,98.8142
1352.33,98.8142
1355.39,98.8142
1358.44,98.8142
1361.5,98.8142
1364.55,98.8142
1367.6,98.8142
1370.66,98.8142
1373.71,98.8142
1376.77,98.8142
1379.82,98.8142
1382.88,98.8142
1385.93,98.8142
1388.99,98.8142
1392.04,98.8142
1395.1,98.8142
1398.15,98.8142
1401.21,98.8142
1404.26,98.8142
1407.32,98.8142
1410.37,98.8142
1413.42,98.8142
1416.48,98.8142
1419.53,98.8142
1422.59,98.8142
1425.64,98.8142
1428.7,98.8142
1431.75,98.8142
1434.81,98.8142
1437.86,98.8142
1440.92,98.8142
1443.97,98.8142
1447.03,98.8142
1450.08,98.8142
1453.14,98.8142
1456.19,98.8142
1459.24,98.8142
1462.3,98.8142
1465.35,98.8142
1468.41,98.8142
1471.46,98.8142
1474.52,98.8142
1477.57,98.8142
1480.63,98.8142
1483.68,98.8142
1486.74,98.8142
1489.79,98.8142
1492.85,98.8142
1495.9,98.8142
1498.95,98.8142
1502.01,98.8142
1505.06,98.8142
1508.12,98.8142
1511.17,98.8142
1514.23,98.8142
1517.28,98.8142
1520.34,98.8142
1523.39,98.8142
1526.45,98.8142
1529.5,98.8142
1532.56,98.8142
1535.61,98.8142
1538.67,98.8142
1541.72,98.8142
1544.77,98.8142
1547.83,98.8142
1550.88,98.8142
1553.94,98.8142
1556.99,98.8142
1560.05,98.8142
1563.1,98.8142
1566.16,98.8142
1569.21,98.8142
1572.27,98.8142
1575.32,98.8142
1578.38,98.8142
1581.43,98.8142
1584.49,98.8142
1587.54,98.8142
1590.59,98.8142
1593.65,98.8142
1596.7,98.8142
1599.76,98.8142
1602.81,98.8142
1605.87,98.8142
1608.92,98.8142
1611.98,98.8142
1615.03,98.8142
1618.09,98.8142
1621.14,98.8142
1624.2,98.8142
1627.25,98.8142
1630.31,98.8142
1633.36,98.8142
1636.41,98.8142
1639.47,98.8142
1642.52,98.8142
1645.58,98.8142
1648.63,98.8142
1651.69,98.8142
1654.74,98.8142
1657.8,-177.866
1660.85,-177.866
1663.91,-177.866
1666.96,-177.866
1670.02,98.8142
1673.07,98.8142
1676.13,98.8142
1679.18,98.8142
1682.23,98.8142
1685.29,98.8142
1688.34,98.8142
1691.4,98.8142
1694.45,98.8142
1697.51,98.8142
1700.56,98.8142
1703.62,98.8142
1706.67,98.8142
1709.73,98.8142
1712.78,98.8142
1715.84,98.8142
1718.89,98.8142
1721.95,98.8142
1725,98.8142
1728.05,98.8142
1731.11,98.8142
1734.16,98.8142
1737.22,98.8142
1740.27,98.8142
1743.33,98.8142
1746.38,98.8142
1749.44,98.8142
1752.49,98.8142
1755.55,98.8142
1758.6,98.8142
1761.66,98.8142
1764.71,98.8142
1767.77,98.8142
1770.82,98.8142
1773.87,98.8142
1776.93,98.8142
1779.98,98.8142
1783.04,98.8142
1786.09,98.8142
1789.15,98.8142
1792.2,98.8142
1795.26,98.8142
1798.31,98.8142
1801.37,98.8142
1804.42,98.8142
1807.48,98.8142
1810.53,98.8142
1813.59,98.8142
1816.64,98.8142
1819.69,98.8142
1822.75,98.8142
1825.8,98.8142
1828.86,98.8142
1831.91,98.8142
1834.97,98.8142
1838.02,98.8142
1841.08,98.8142
1844.13,98.8142
1847.19,98.8142
1850.24,98.8142
1853.3,98.8142
1856.35,98.8142
1859.41,98.8142
1862.46,98.8142
1865.51,98.8142
1868.57,98.8142
1871.62,98.8142
1874.68,98.8142
1877.73,98.8142
1880.79,98.8142
1883.84,98.8142
1886.9,98.8142
1889.95,98.8142
1893.01,98.8142
1896.06,98.8142
1899.12,98.8142
1902.17,98.8142
1905.23,98.8142
1908.28,98.8142
1911.33,98.8142
1914.39,98.8142
1917.44,98.8142
1920.5,98.8142
1923.55,98.8142
1926.61,98.8142
1929.66,98.8142
1932.72,98.8142
1935.77,98.8142
1938.83,98.8142
1941.88,98.8142
1944.94,98.8142
1947.99,98.8142
1951.05,98.8142
1954.1,98.8142
1957.15,98.8142
1960.21,98.8142
1963.26,98.8142
1966.32,98.8142
1969.37,98.8142
1972.43,98.8142
1975.48,98.8142
1978.54,98.8142
1981.59,98.8142
1984.65,98.8142
1987.7,98.8142
1990.76,98.8142
1993.81,98.8142
1996.86,98.8142
1999.92,98.8142
2002.97,98.8142
2006.03,98.8142
2009.08,98.8142
2012.14,98.8142
2015.19,98.8142
2018.25,98.8142
2021.3,98.8142
2024.36,98.8142
2027.41,98.8142
2030.47,98.8142
2033.52,98.8142
2036.58,98.8142
2039.63,98.8142
2042.68,98.8142
2045.74,98.8142
2048.79,98.8142
2051.85,98.8142
2054.9,98.8142
2057.96,98.8142
2061.01,98.8142
2064.07,98.8142
2067.12,98.8142
2070.18,98.8142
2073.23,98.8142
2076.29,98.8142
2079.34,98.8142
2082.4,98.8142
2085.45,98.8142
2088.5,98.8142
2091.56,98.8142
2094.61,98.8142
2097.67,98.8142
2100.72,98.8142
2103.78,98.8142
2106.83,98.8142
2109.89,98.8142
2112.94,98.8142
2116,98.8142
2119.05,98.8142
2122.11,98.8142
2125.16,98.8142
2128.22,98.8142
2131.27,98.8142
2134.32,98.8142
2137.38,98.8142
2140.43,98.8142
2143.49,98.8142
2146.54,98.8142
2149.6,98.8142
2152.65,98.8142
2155.71,98.8142
2158.76,98.8142
2161.82,98.8142
2164.87,98.8142
2167.93,98.8142
2170.98,98.8142
2174.04,98.8142
2177.09,98.8142
2180.14,98.8142
2183.2,98.8142
2186.25,98.8142
2189.31,98.8142
2192.36,98.8142
2195.42,98.8142
2198.47,98.8142
2201.53,98.8142
2204.58,98.8142
2207.64,98.8142
2210.69,98.8142
2213.75,98.8142
2216.8,98.8142
2219.86,98.8142
2222.91,98.8142
2225.96,98.8142
2229.02,98.8142
2232.07,98.8142
2235.13,98.8142
2238.18,98.8142
2241.24,98.8142
2244.29,98.8142
2247.35,98.8142
2250.4,98.8142
2253.46,98.8142
2256.51,98.8142
2259.57,98.8142
2262.62,98.8142
2265.68,98.8142
2268.73,98.8142
2271.78,98.8142
2274.84,98.8142
2277.89,98.8142
2280.95,98.8142
2284,98.8142
2287.06,98.8142
2290.11,98.8142
2293.17,98.8142
