,GP550R
RamanShit,Intensity
261.878,748.031
264.928,2165.35
267.978,5472.44
271.027,9724.41
274.077,16811
277.127,17755.9
280.177,11378
283.226,8779.53
286.276,5708.66
289.326,5236.22
292.376,5000
295.425,5000
298.475,4763.78
301.525,4763.78
304.575,4763.78
307.624,4527.56
310.674,4527.56
313.724,4291.34
316.774,3818.9
319.823,2637.8
322.873,1929.13
325.923,1692.91
328.973,1456.69
332.022,1220.47
335.072,748.031
338.122,748.031
341.172,984.252
344.222,1692.91
347.271,2401.57
350.321,2637.8
353.371,2165.35
356.421,1929.13
359.47,1692.91
362.52,1692.91
365.57,1692.91
368.62,1456.69
371.669,984.252
374.719,511.811
377.769,511.811
380.819,748.031
383.868,1220.47
386.918,1456.69
389.968,1929.13
393.018,1220.47
396.067,984.252
399.117,511.811
402.167,511.811
405.217,748.031
408.266,1220.47
411.316,2874.02
414.366,6181.1
417.416,11850.4
420.465,18700.8
423.515,27204.7
426.565,28385.8
429.615,21535.4
432.665,20590.6
435.714,19173.2
438.764,18464.6
441.814,19645.7
444.864,22716.5
447.913,30275.6
450.963,35000
454.013,46338.6
457.063,48228.3
460.112,34291.3
463.162,26023.6
466.212,14685
469.262,9015.75
472.311,5708.66
475.361,3582.68
478.411,2165.35
481.461,1456.69
484.51,1456.69
487.56,1692.91
490.61,2165.35
493.66,3110.24
496.709,4527.56
499.759,6181.1
502.809,6889.76
505.859,6889.76
508.909,6653.54
511.958,6181.1
515.008,5236.22
518.058,5000
521.108,4763.78
524.157,4291.34
527.207,2874.02
530.257,1220.47
533.307,511.811
536.356,275.591
539.406,275.591
542.456,275.591
545.506,511.811
548.555,1220.47
551.605,2401.57
554.655,4527.56
557.705,9015.75
560.754,13031.5
563.804,25787.4
566.854,28149.6
569.904,13503.9
572.953,10669.3
576.003,7362.2
579.053,6653.54
582.103,7362.2
585.152,8543.31
588.202,10669.3
591.252,13267.7
594.302,15157.5
597.352,18937
600.401,17992.1
603.451,15157.5
606.501,13976.4
609.551,11850.4
612.6,10196.9
615.65,8307.09
618.7,6181.1
621.75,4055.12
624.799,2401.57
627.849,1456.69
630.899,984.252
633.949,748.031
636.998,511.811
640.048,275.591
643.098,275.591
646.148,275.591
649.197,275.591
652.247,275.591
655.297,275.591
658.347,275.591
661.396,275.591
664.446,511.811
667.496,511.811
670.546,748.031
673.596,984.252
676.645,1456.69
679.695,2165.35
682.745,3110.24
685.795,3582.68
688.844,3818.9
691.894,3346.46
694.944,2874.02
697.994,1929.13
701.043,1220.47
704.093,748.031
707.143,511.811
710.193,275.591
713.242,275.591
716.292,275.591
719.342,275.591
722.392,275.591
725.441,275.591
728.491,275.591
731.541,275.591
734.591,275.591
737.64,275.591
740.69,275.591
743.74,275.591
746.79,275.591
749.839,275.591
752.889,275.591
755.939,275.591
758.989,275.591
762.039,275.591
765.088,275.591
768.138,275.591
771.188,275.591
774.238,275.591
777.287,275.591
780.337,275.591
783.387,275.591
786.437,275.591
789.486,275.591
792.536,275.591
795.586,275.591
798.636,275.591
801.685,275.591
804.735,275.591
807.785,275.591
810.835,275.591
813.884,275.591
816.934,275.591
819.984,511.811
823.034,748.031
826.083,1220.47
829.133,1220.47
832.183,1220.47
835.233,1220.47
838.283,984.252
841.332,748.031
844.382,748.031
847.432,748.031
850.482,984.252
853.531,1456.69
856.581,2165.35
859.631,3110.24
862.681,4291.34
865.73,5472.44
868.78,6181.1
871.83,6417.32
874.88,6653.54
877.929,7125.98
880.979,8307.09
884.029,9015.75
887.079,10196.9
890.128,9251.97
893.178,9251.97
896.228,8779.53
899.278,9488.19
902.327,10433.1
905.377,13267.7
908.427,17992.1
911.477,21063
914.526,28622
917.576,29566.9
920.626,21063
923.676,17755.9
926.726,11378
929.775,7125.98
932.825,4291.34
935.875,2637.8
938.925,1456.69
941.974,748.031
945.024,511.811
948.074,511.811
951.124,748.031
954.173,984.252
957.223,1456.69
960.273,1692.91
963.323,1929.13
966.372,2165.35
969.422,2874.02
972.472,4763.78
975.522,7598.43
978.571,9488.19
981.621,11614.2
984.671,9488.19
987.721,7834.65
990.77,4763.78
993.82,2637.8
996.87,1456.69
999.92,748.031
1002.97,511.811
1006.02,275.591
1009.07,275.591
1012.12,275.591
1015.17,511.811
1018.22,748.031
1021.27,984.252
1024.32,1220.47
1027.37,1456.69
1030.42,2165.35
1033.47,3346.46
1036.52,4763.78
1039.57,5708.66
1042.62,6417.32
1045.67,5708.66
1048.72,5708.66
1051.77,5708.66
1054.82,5472.44
1057.87,5472.44
1060.91,6653.54
1063.96,6889.76
1067.01,5944.88
1070.06,6181.1
1073.11,6417.32
1076.16,7125.98
1079.21,9488.19
1082.26,11378
1085.31,14921.3
1088.36,18464.6
1091.41,10433.1
1094.46,7125.98
1097.51,3346.46
1100.56,1692.91
1103.61,984.252
1106.66,511.811
1109.71,275.591
1112.76,275.591
1115.81,275.591
1118.86,275.591
1121.91,275.591
1124.96,275.591
1128.01,275.591
1131.06,275.591
1134.11,275.591
1137.16,275.591
1140.21,275.591
1143.26,275.591
1146.31,275.591
1149.36,275.591
1152.41,275.591
1155.46,275.591
1158.51,275.591
1161.56,275.591
1164.61,275.591
1167.66,275.591
1170.71,275.591
1173.76,275.591
1176.81,275.591
1179.86,275.591
1182.91,275.591
1185.96,275.591
1189,275.591
1192.05,275.591
1195.1,275.591
1198.15,275.591
1201.2,275.591
1204.25,275.591
1207.3,275.591
1210.35,275.591
1213.4,275.591
1216.45,275.591
1219.5,275.591
1222.55,275.591
1225.6,275.591
1228.65,275.591
1231.7,275.591
1234.75,275.591
1237.8,275.591
1240.85,275.591
1243.9,275.591
1246.95,275.591
1250,275.591
1253.05,275.591
1256.1,275.591
1259.15,275.591
1262.2,275.591
1265.25,275.591
1268.3,275.591
1271.35,275.591
1274.4,275.591
1277.45,275.591
1280.5,275.591
1283.55,275.591
1286.6,275.591
1289.65,275.591
1292.7,275.591
1295.75,275.591
1298.8,275.591
1301.85,275.591
1304.9,275.591
1307.95,275.591
1311,275.591
1314.04,275.591
1317.09,275.591
1320.14,275.591
1323.19,275.591
1326.24,275.591
1329.29,275.591
1332.34,275.591
1335.39,275.591
1338.44,275.591
1341.49,275.591
1344.54,275.591
1347.59,275.591
1350.64,275.591
1353.69,275.591
1356.74,275.591
1359.79,275.591
1362.84,275.591
1365.89,275.591
1368.94,275.591
1371.99,275.591
1375.04,275.591
1378.09,275.591
1381.14,275.591
1384.19,275.591
1387.24,275.591
1390.29,275.591
1393.34,275.591
1396.39,275.591
1399.44,275.591
1402.49,275.591
1405.54,275.591
1408.59,275.591
1411.64,275.591
1414.69,275.591
1417.74,275.591
1420.79,275.591
1423.84,275.591
1426.89,275.591
1429.94,275.591
1432.99,275.591
1436.04,275.591
1439.09,275.591
1442.13,275.591
1445.18,275.591
1448.23,275.591
1451.28,275.591
1454.33,275.591
1457.38,275.591
1460.43,275.591
1463.48,275.591
1466.53,275.591
1469.58,275.591
1472.63,275.591
1475.68,275.591
1478.73,275.591
1481.78,275.591
1484.83,275.591
1487.88,275.591
1490.93,275.591
1493.98,275.591
1497.03,275.591
1500.08,275.591
1503.13,275.591
1506.18,275.591
1509.23,275.591
1512.28,275.591
1515.33,275.591
1518.38,275.591
1521.43,275.591
1524.48,275.591
1527.53,275.591
1530.58,275.591
1533.63,275.591
1536.68,275.591
1539.73,275.591
1542.78,275.591
1545.83,275.591
1548.88,275.591
1551.93,275.591
1554.98,275.591
1558.03,511.811
1561.08,275.591
1564.13,275.591
1567.17,275.591
1570.22,275.591
1573.27,275.591
1576.32,275.591
1579.37,275.591
1582.42,275.591
1585.47,275.591
1588.52,275.591
1591.57,275.591
1594.62,275.591
1597.67,275.591
1600.72,275.591
1603.77,275.591
1606.82,275.591
1609.87,275.591
1612.92,275.591
1615.97,275.591
1619.02,275.591
1622.07,275.591
1625.12,275.591
1628.17,275.591
1631.22,275.591
1634.27,275.591
1637.32,275.591
1640.37,275.591
1643.42,275.591
1646.47,275.591
1649.52,275.591
1652.57,275.591
1655.62,275.591
1658.67,275.591
1661.72,275.591
1664.77,275.591
1667.82,275.591
1670.87,275.591
1673.92,275.591
1676.97,275.591
1680.02,275.591
1683.07,275.591
1686.12,275.591
1689.17,275.591
1692.22,275.591
1695.26,275.591
1698.31,275.591
1701.36,275.591
1704.41,275.591
1707.46,275.591
1710.51,275.591
1713.56,275.591
1716.61,275.591
1719.66,275.591
1722.71,275.591
1725.76,275.591
1728.81,275.591
1731.86,275.591
1734.91,275.591
1737.96,275.591
1741.01,275.591
1744.06,275.591
1747.11,275.591
1750.16,275.591
1753.21,275.591
1756.26,275.591
1759.31,275.591
1762.36,275.591
1765.41,275.591
1768.46,275.591
1771.51,275.591
1774.56,275.591
1777.61,275.591
1780.66,275.591
1783.71,275.591
1786.76,275.591
1789.81,275.591
1792.86,275.591
1795.91,275.591
1798.96,275.591
1802.01,275.591
1805.06,275.591
1808.11,275.591
1811.16,275.591
1814.21,275.591
1817.26,275.591
1820.3,275.591
1823.35,275.591
1826.4,275.591
1829.45,275.591
1832.5,275.591
1835.55,275.591
1838.6,275.591
1841.65,275.591
1844.7,275.591
1847.75,275.591
1850.8,275.591
1853.85,275.591
1856.9,275.591
1859.95,275.591
1863,275.591
1866.05,275.591
1869.1,275.591
1872.15,275.591
1875.2,275.591
1878.25,275.591
1881.3,275.591
1884.35,275.591
1887.4,275.591
1890.45,275.591
1893.5,275.591
1896.55,275.591
1899.6,275.591
1902.65,275.591
1905.7,275.591
1908.75,275.591
1911.8,275.591
1914.85,275.591
1917.9,275.591
1920.95,275.591
1924,275.591
1927.05,275.591
1930.1,275.591
1933.15,275.591
1936.2,275.591
1939.25,275.591
1942.3,275.591
1945.35,275.591
1948.39,275.591
1951.44,275.591
1954.49,275.591
1957.54,275.591
1960.59,275.591
1963.64,275.591
1966.69,275.591
1969.74,275.591
1972.79,275.591
1975.84,275.591
1978.89,275.591
1981.94,275.591
1984.99,275.591
1988.04,275.591
1991.09,275.591
1994.14,275.591
1997.19,275.591
2000.24,275.591
2003.29,275.591
2006.34,275.591
2009.39,275.591
2012.44,275.591
2015.49,275.591
2018.54,275.591
2021.59,275.591
2024.64,275.591
2027.69,275.591
2030.74,275.591
2033.79,275.591
2036.84,275.591
2039.89,275.591
2042.94,275.591
2045.99,275.591
2049.04,275.591
2052.09,275.591
2055.14,275.591
2058.19,275.591
2061.24,275.591
2064.29,275.591
2067.34,275.591
2070.39,275.591
2073.43,275.591
2076.48,275.591
2079.53,275.591
2082.58,275.591
2085.63,275.591
2088.68,275.591
2091.73,275.591
2094.78,275.591
2097.83,511.811
2100.88,511.811
2103.93,275.591
2106.98,275.591
2110.03,275.591
2113.08,275.591
2116.13,275.591
2119.18,275.591
2122.23,275.591
2125.28,275.591
2128.33,275.591
2131.38,275.591
2134.43,275.591
2137.48,275.591
2140.53,275.591
2143.58,275.591
2146.63,275.591
2149.68,275.591
2152.73,275.591
2155.78,275.591
2158.83,275.591
2161.88,275.591
2164.93,275.591
2167.98,275.591
2171.03,275.591
2174.08,275.591
2177.13,275.591
2180.18,275.591
2183.23,275.591
2186.28,275.591
2189.33,275.591
2192.38,511.811
2195.43,275.591
2198.48,275.591
2201.52,275.591
2204.57,275.591
2207.62,275.591
2210.67,275.591
2213.72,275.591
2216.77,275.591
2219.82,275.591
2222.87,275.591
2225.92,275.591
2228.97,511.811
2232.02,511.811
2235.07,275.591
2238.12,275.591
2241.17,275.591
2244.22,275.591
2247.27,275.591
2250.32,275.591
2253.37,275.591
2256.42,275.591
2259.47,275.591
2262.52,275.591
2265.57,275.591
2268.62,275.591
2271.67,275.591
2274.72,275.591
2277.77,275.591
2280.82,275.591
2283.87,275.591
2286.92,275.591
2289.97,275.591
