,GP550R
RamanShit,Intensity
261.817,452.756
264.871,452.756
267.926,452.756
270.981,452.756
274.035,452.756
277.09,452.756
280.145,452.756
283.199,452.756
286.254,452.756
289.309,452.756
292.363,452.756
295.418,452.756
298.473,452.756
301.527,452.756
304.582,452.756
307.637,452.756
310.691,452.756
313.746,452.756
316.801,452.756
319.855,452.756
322.91,452.756
325.965,452.756
329.019,452.756
332.074,452.756
335.129,452.756
338.183,98.4252
341.238,98.4252
344.293,98.4252
347.347,98.4252
350.402,98.4252
353.457,98.4252
356.511,98.4252
359.566,98.4252
362.621,452.756
365.675,452.756
368.73,452.756
371.785,452.756
374.839,452.756
377.894,452.756
380.949,452.756
384.003,452.756
387.058,452.756
390.113,452.756
393.167,452.756
396.222,452.756
399.277,452.756
402.331,452.756
405.386,452.756
408.441,452.756
411.495,452.756
414.55,452.756
417.605,452.756
420.659,452.756
423.714,452.756
426.768,452.756
429.823,98.4252
432.878,98.4252
435.932,98.4252
438.987,98.4252
442.042,98.4252
445.096,98.4252
448.151,98.4252
451.206,98.4252
454.26,98.4252
457.315,98.4252
460.37,98.4252
463.424,98.4252
466.479,98.4252
469.534,98.4252
472.588,452.756
475.643,452.756
478.698,452.756
481.752,452.756
484.807,452.756
487.862,452.756
490.916,452.756
493.971,452.756
497.026,452.756
500.08,452.756
503.135,452.756
506.19,452.756
509.244,452.756
512.299,452.756
515.354,452.756
518.408,452.756
521.463,452.756
524.518,452.756
527.572,452.756
530.627,452.756
533.682,452.756
536.736,452.756
539.791,452.756
542.846,98.4252
545.9,98.4252
548.955,98.4252
552.01,98.4252
555.064,98.4252
558.119,98.4252
561.174,98.4252
564.228,98.4252
567.283,98.4252
570.338,98.4252
573.392,98.4252
576.447,98.4252
579.502,98.4252
582.556,98.4252
585.611,98.4252
588.666,98.4252
591.72,98.4252
594.775,98.4252
597.83,98.4252
600.884,98.4252
603.939,98.4252
606.994,98.4252
610.048,98.4252
613.103,98.4252
616.158,98.4252
619.212,98.4252
622.267,98.4252
625.322,98.4252
628.376,98.4252
631.431,98.4252
634.486,98.4252
637.54,98.4252
640.595,98.4252
643.65,98.4252
646.704,98.4252
649.759,98.4252
652.814,98.4252
655.868,98.4252
658.923,98.4252
661.977,98.4252
665.032,98.4252
668.087,98.4252
671.141,98.4252
674.196,98.4252
677.251,98.4252
680.305,98.4252
683.36,98.4252
686.415,98.4252
689.469,98.4252
692.524,98.4252
695.579,98.4252
698.633,98.4252
701.688,98.4252
704.743,98.4252
707.797,98.4252
710.852,452.756
713.907,452.756
716.961,452.756
720.016,452.756
723.071,452.756
726.125,807.087
729.18,807.087
732.235,807.087
735.289,807.087
738.344,807.087
741.399,807.087
744.453,452.756
747.508,452.756
750.563,452.756
753.617,452.756
756.672,98.4252
759.727,98.4252
762.781,98.4252
765.836,98.4252
768.891,98.4252
771.945,98.4252
775,98.4252
778.055,98.4252
781.109,98.4252
784.164,98.4252
787.219,98.4252
790.273,98.4252
793.328,98.4252
796.383,98.4252
799.437,98.4252
802.492,98.4252
805.547,98.4252
808.601,98.4252
811.656,98.4252
814.711,98.4252
817.765,452.756
820.82,452.756
823.875,452.756
826.929,452.756
829.984,452.756
833.039,452.756
836.093,452.756
839.148,452.756
842.203,452.756
845.257,452.756
848.312,452.756
851.367,452.756
854.421,452.756
857.476,452.756
860.531,452.756
863.585,98.4252
866.64,98.4252
869.695,98.4252
872.749,98.4252
875.804,98.4252
878.859,98.4252
881.913,98.4252
884.968,98.4252
888.023,98.4252
891.077,452.756
894.132,452.756
897.186,452.756
900.241,452.756
903.296,452.756
906.35,452.756
909.405,452.756
912.46,452.756
915.514,452.756
918.569,452.756
921.624,452.756
924.678,452.756
927.733,98.4252
930.788,98.4252
933.842,98.4252
936.897,98.4252
939.952,98.4252
943.006,98.4252
946.061,98.4252
949.116,98.4252
952.17,98.4252
955.225,452.756
958.28,452.756
961.334,452.756
964.389,452.756
967.444,452.756
970.498,452.756
973.553,807.087
976.608,807.087
979.662,807.087
982.717,807.087
985.772,1161.42
988.826,1161.42
991.881,1161.42
994.936,807.087
997.99,807.087
1001.05,807.087
1004.1,452.756
1007.15,452.756
1010.21,452.756
1013.26,452.756
1016.32,452.756
1019.37,98.4252
1022.43,98.4252
1025.48,98.4252
1028.54,98.4252
1031.59,98.4252
1034.65,98.4252
1037.7,98.4252
1040.76,452.756
1043.81,452.756
1046.86,807.087
1049.92,807.087
1052.97,807.087
1056.03,807.087
1059.08,807.087
1062.14,807.087
1065.19,452.756
1068.25,452.756
1071.3,98.4252
1074.36,98.4252
1077.41,98.4252
1080.47,98.4252
1083.52,98.4252
1086.58,98.4252
1089.63,98.4252
1092.68,98.4252
1095.74,452.756
1098.79,452.756
1101.85,807.087
1104.9,1161.42
1107.96,1870.08
1111.01,2578.74
1114.07,3996.06
1117.12,6122.05
1120.18,8602.36
1123.23,11791.3
1126.29,15689
1129.34,20295.3
1132.4,24547.2
1135.45,26318.9
1138.5,26673.2
1141.56,27027.6
1144.61,27027.6
1147.67,28090.6
1150.72,30570.9
1153.78,31633.9
1156.83,33759.8
1159.89,31279.5
1162.94,28090.6
1166,21712.6
1169.05,15689
1172.11,11437
1175.16,8248.03
1178.22,6122.05
1181.27,4704.72
1184.32,3287.4
1187.38,2224.41
1190.43,1161.42
1193.49,807.087
1196.54,807.087
1199.6,807.087
1202.65,1161.42
1205.71,1515.75
1208.76,1870.08
1211.82,2578.74
1214.87,3287.4
1217.93,4704.72
1220.98,6122.05
1224.04,8248.03
1227.09,10728.3
1230.14,13563
1233.2,16752
1236.25,20295.3
1239.31,23484.3
1242.36,25964.6
1245.42,27736.2
1248.47,28799.2
1251.53,29153.5
1254.58,28799.2
1257.64,28090.6
1260.69,25610.2
1263.75,22421.3
1266.8,18878
1269.86,15334.6
1272.91,12500
1275.96,9665.35
1279.02,7539.37
1282.07,5767.72
1285.13,4350.39
1288.18,3287.4
1291.24,2224.41
1294.29,1515.75
1297.35,1161.42
1300.4,807.087
1303.46,452.756
1306.51,452.756
1309.57,98.4252
1312.62,98.4252
1315.68,452.756
1318.73,452.756
1321.78,807.087
1324.84,1161.42
1327.89,1870.08
1330.95,2578.74
1334,3287.4
1337.06,4704.72
1340.11,6476.38
1343.17,8602.36
1346.22,10728.3
1349.28,13208.7
1352.33,15334.6
1355.39,16397.6
1358.44,16397.6
1361.5,16043.3
1364.55,15334.6
1367.6,13917.3
1370.66,11791.3
1373.71,9665.35
1376.77,8248.03
1379.82,7185.04
1382.88,5767.72
1385.93,4704.72
1388.99,3996.06
1392.04,3287.4
1395.1,2578.74
1398.15,2224.41
1401.21,1870.08
1404.26,1161.42
1407.32,1161.42
1410.37,807.087
1413.42,452.756
1416.48,452.756
1419.53,452.756
1422.59,98.4252
1425.64,98.4252
1428.7,98.4252
1431.75,452.756
1434.81,452.756
1437.86,452.756
1440.92,807.087
1443.97,807.087
1447.03,1161.42
1450.08,1161.42
1453.14,1515.75
1456.19,1515.75
1459.24,1515.75
1462.3,1515.75
1465.35,1515.75
1468.41,1515.75
1471.46,1515.75
1474.52,1515.75
1477.57,1161.42
1480.63,1161.42
1483.68,807.087
1486.74,807.087
1489.79,807.087
1492.85,452.756
1495.9,452.756
1498.95,452.756
1502.01,98.4252
1505.06,98.4252
1508.12,98.4252
1511.17,98.4252
1514.23,98.4252
1517.28,98.4252
1520.34,452.756
1523.39,452.756
1526.45,452.756
1529.5,452.756
1532.56,807.087
1535.61,807.087
1538.67,807.087
1541.72,1161.42
1544.77,1161.42
1547.83,1161.42
1550.88,1161.42
1553.94,1161.42
1556.99,1161.42
1560.05,1161.42
1563.1,1161.42
1566.16,1161.42
1569.21,1161.42
1572.27,1161.42
1575.32,807.087
1578.38,807.087
1581.43,807.087
1584.49,807.087
1587.54,452.756
1590.59,452.756
1593.65,452.756
1596.7,452.756
1599.76,452.756
1602.81,452.756
1605.87,98.4252
1608.92,98.4252
1611.98,98.4252
1615.03,452.756
1618.09,452.756
1621.14,452.756
1624.2,452.756
1627.25,452.756
1630.31,452.756
1633.36,452.756
1636.41,452.756
1639.47,452.756
1642.52,452.756
1645.58,452.756
1648.63,452.756
1651.69,452.756
1654.74,452.756
1657.8,452.756
1660.85,452.756
1663.91,452.756
1666.96,452.756
1670.02,452.756
1673.07,452.756
1676.13,452.756
1679.18,452.756
1682.23,452.756
1685.29,98.4252
1688.34,98.4252
1691.4,98.4252
1694.45,98.4252
1697.51,98.4252
1700.56,98.4252
1703.62,98.4252
1706.67,98.4252
1709.73,98.4252
1712.78,98.4252
1715.84,98.4252
1718.89,98.4252
1721.95,98.4252
1725,98.4252
1728.05,98.4252
1731.11,98.4252
1734.16,98.4252
1737.22,98.4252
1740.27,98.4252
1743.33,98.4252
1746.38,98.4252
1749.44,98.4252
1752.49,98.4252
1755.55,452.756
1758.6,452.756
1761.66,452.756
1764.71,807.087
1767.77,1161.42
1770.82,1870.08
1773.87,2224.41
1776.93,3287.4
1779.98,4350.39
1783.04,5059.06
1786.09,5059.06
1789.15,5059.06
1792.2,4704.72
1795.26,3996.06
1798.31,2933.07
1801.37,1870.08
1804.42,1515.75
1807.48,807.087
1810.53,452.756
1813.59,452.756
1816.64,98.4252
1819.69,98.4252
1822.75,98.4252
1825.8,452.756
1828.86,452.756
1831.91,452.756
1834.97,452.756
1838.02,452.756
1841.08,452.756
1844.13,452.756
1847.19,452.756
1850.24,452.756
1853.3,807.087
1856.35,1161.42
1859.41,1515.75
1862.46,2224.41
1865.51,3641.73
1868.57,5767.72
1871.62,8602.36
1874.68,13208.7
1877.73,21003.9
1880.79,33405.5
1883.84,50767.7
1886.9,61043.3
1889.95,70255.9
1893.01,61043.3
1896.06,56082.7
1899.12,43681.1
1902.17,30570.9
1905.23,21003.9
1908.28,14626
1911.33,10374
1914.39,7185.04
1917.44,5059.06
1920.5,3641.73
1923.55,2933.07
1926.61,2224.41
1929.66,1870.08
1932.72,1515.75
1935.77,1161.42
1938.83,1161.42
1941.88,807.087
1944.94,807.087
1947.99,807.087
1951.05,452.756
1954.1,452.756
1957.15,452.756
1960.21,452.756
1963.26,452.756
1966.32,807.087
1969.37,807.087
1972.43,452.756
1975.48,452.756
1978.54,452.756
1981.59,98.4252
1984.65,98.4252
1987.7,98.4252
1990.76,98.4252
1993.81,98.4252
1996.86,98.4252
1999.92,98.4252
2002.97,98.4252
2006.03,98.4252
2009.08,98.4252
2012.14,98.4252
2015.19,98.4252
2018.25,98.4252
2021.3,98.4252
2024.36,98.4252
2027.41,98.4252
2030.47,98.4252
2033.52,98.4252
2036.58,98.4252
2039.63,98.4252
2042.68,98.4252
2045.74,98.4252
2048.79,98.4252
2051.85,98.4252
2054.9,98.4252
2057.96,98.4252
2061.01,98.4252
2064.07,98.4252
2067.12,452.756
2070.18,452.756
2073.23,452.756
2076.29,452.756
2079.34,452.756
2082.4,807.087
2085.45,807.087
2088.5,1161.42
2091.56,1161.42
2094.61,1515.75
2097.67,1870.08
2100.72,1870.08
2103.78,1870.08
2106.83,1870.08
2109.89,1870.08
2112.94,1515.75
2116,1515.75
2119.05,1161.42
2122.11,1161.42
2125.16,1161.42
2128.22,1161.42
2131.27,807.087
2134.32,807.087
2137.38,807.087
2140.43,807.087
2143.49,452.756
2146.54,452.756
2149.6,452.756
2152.65,452.756
2155.71,452.756
2158.76,98.4252
2161.82,98.4252
2164.87,98.4252
2167.93,98.4252
2170.98,98.4252
2174.04,452.756
2177.09,452.756
2180.14,452.756
2183.2,452.756
2186.25,452.756
2189.31,452.756
2192.36,452.756
2195.42,452.756
2198.47,452.756
2201.53,452.756
2204.58,452.756
2207.64,452.756
2210.69,452.756
2213.75,452.756
2216.8,452.756
2219.86,452.756
2222.91,452.756
2225.96,452.756
2229.02,452.756
2232.07,452.756
2235.13,452.756
2238.18,452.756
2241.24,98.4252
2244.29,98.4252
2247.35,98.4252
2250.4,98.4252
2253.46,98.4252
2256.51,98.4252
2259.57,98.4252
2262.62,98.4252
2265.68,98.4252
2268.73,98.4252
2271.78,98.4252
2274.84,98.4252
2277.89,98.4252
2280.95,98.4252
2284,98.4252
2287.06,98.4252
2290.11,98.4252
2293.17,98.4252
