,GP550R
RamanShit,Intensity
258.762,275.591
261.817,275.591
264.871,275.591
267.926,275.591
270.981,275.591
274.035,275.591
277.09,275.591
280.145,275.591
283.199,275.591
286.254,275.591
289.309,275.591
292.363,275.591
295.418,275.591
298.473,275.591
301.527,275.591
304.582,275.591
307.637,275.591
310.691,275.591
313.746,275.591
316.801,511.811
319.855,511.811
322.91,511.811
325.965,511.811
329.019,748.031
332.074,748.031
335.129,748.031
338.183,984.252
341.238,1220.47
344.293,1456.69
347.347,1692.91
350.402,1929.13
353.457,1929.13
356.511,1692.91
359.566,1456.69
362.621,1220.47
365.675,1220.47
368.73,984.252
371.785,984.252
374.839,748.031
377.894,511.811
380.949,511.811
384.003,275.591
387.058,275.591
390.113,275.591
393.167,275.591
396.222,275.591
399.277,275.591
402.331,275.591
405.386,275.591
408.441,275.591
411.495,275.591
414.55,511.811
417.605,275.591
420.659,275.591
423.714,275.591
426.768,275.591
429.823,275.591
432.878,275.591
435.932,511.811
438.987,511.811
442.042,275.591
445.096,275.591
448.151,275.591
451.206,275.591
454.26,275.591
457.315,275.591
460.37,275.591
463.424,275.591
466.479,275.591
469.534,275.591
472.588,275.591
475.643,275.591
478.698,275.591
481.752,275.591
484.807,275.591
487.862,275.591
490.916,275.591
493.971,275.591
497.026,275.591
500.08,275.591
503.135,511.811
506.19,511.811
509.244,511.811
512.299,748.031
515.354,748.031
518.408,748.031
521.463,748.031
524.518,984.252
527.572,984.252
530.627,984.252
533.682,748.031
536.736,748.031
539.791,748.031
542.846,511.811
545.9,511.811
548.955,511.811
552.01,275.591
555.064,275.591
558.119,275.591
561.174,275.591
564.228,275.591
567.283,275.591
570.338,275.591
573.392,275.591
576.447,275.591
579.502,275.591
582.556,275.591
585.611,275.591
588.666,275.591
591.72,275.591
594.775,275.591
597.83,511.811
600.884,511.811
603.939,511.811
606.994,511.811
610.048,511.811
613.103,511.811
616.158,511.811
619.212,275.591
622.267,275.591
625.322,275.591
628.376,275.591
631.431,275.591
634.486,275.591
637.54,275.591
640.595,275.591
643.65,275.591
646.704,275.591
649.759,275.591
652.814,275.591
655.868,275.591
658.923,275.591
661.977,275.591
665.032,275.591
668.087,275.591
671.141,275.591
674.196,275.591
677.251,275.591
680.305,275.591
683.36,275.591
686.415,275.591
689.469,275.591
692.524,275.591
695.579,275.591
698.633,275.591
701.688,275.591
704.743,275.591
707.797,275.591
710.852,275.591
713.907,275.591
716.961,275.591
720.016,275.591
723.071,275.591
726.125,275.591
729.18,275.591
732.235,275.591
735.289,275.591
738.344,275.591
741.399,275.591
744.453,275.591
747.508,275.591
750.563,275.591
753.617,275.591
756.672,275.591
759.727,275.591
762.781,275.591
765.836,275.591
768.891,275.591
771.945,275.591
775,275.591
778.055,275.591
781.109,275.591
784.164,275.591
787.219,275.591
790.273,275.591
793.328,275.591
796.383,275.591
799.437,275.591
802.492,275.591
805.547,275.591
808.601,275.591
811.656,275.591
814.711,275.591
817.765,275.591
820.82,275.591
823.875,275.591
826.929,275.591
829.984,275.591
833.039,275.591
836.093,275.591
839.148,275.591
842.203,275.591
845.257,275.591
848.312,275.591
851.367,275.591
854.421,275.591
857.476,275.591
860.531,275.591
863.585,275.591
866.64,275.591
869.695,511.811
872.749,511.811
875.804,511.811
878.859,748.031
881.913,748.031
884.968,511.811
888.023,511.811
891.077,511.811
894.132,275.591
897.186,275.591
900.241,275.591
903.296,275.591
906.35,275.591
909.405,275.591
912.46,275.591
915.514,275.591
918.569,275.591
921.624,275.591
924.678,275.591
927.733,275.591
930.788,275.591
933.842,275.591
936.897,275.591
939.952,275.591
943.006,275.591
946.061,275.591
949.116,275.591
952.17,275.591
955.225,275.591
958.28,275.591
961.334,275.591
964.389,275.591
967.444,275.591
970.498,275.591
973.553,275.591
976.608,275.591
979.662,275.591
982.717,275.591
985.772,275.591
988.826,275.591
991.881,275.591
994.936,275.591
997.99,275.591
1001.05,275.591
1004.1,275.591
1007.15,275.591
1010.21,275.591
1013.26,275.591
1016.32,275.591
1019.37,275.591
1022.43,275.591
1025.48,275.591
1028.54,275.591
1031.59,275.591
1034.65,275.591
1037.7,275.591
1040.76,275.591
1043.81,275.591
1046.86,275.591
1049.92,275.591
1052.97,275.591
1056.03,275.591
1059.08,275.591
1062.14,275.591
1065.19,275.591
1068.25,275.591
1071.3,275.591
1074.36,275.591
1077.41,275.591
1080.47,275.591
1083.52,275.591
1086.58,275.591
1089.63,275.591
1092.68,511.811
1095.74,748.031
1098.79,984.252
1101.85,1220.47
1104.9,1456.69
1107.96,1929.13
1111.01,2874.02
1114.07,4055.12
1117.12,5472.44
1120.18,7598.43
1123.23,10433.1
1126.29,12086.6
1129.34,13740.2
1132.4,12086.6
1135.45,11141.7
1138.5,9015.75
1141.56,6653.54
1144.61,4763.78
1147.67,3582.68
1150.72,2637.8
1153.78,2165.35
1156.83,1929.13
1159.89,1456.69
1162.94,1220.47
1166,1220.47
1169.05,1220.47
1172.11,984.252
1175.16,748.031
1178.22,748.031
1181.27,511.811
1184.32,511.811
1187.38,275.591
1190.43,275.591
1193.49,275.591
1196.54,275.591
1199.6,275.591
1202.65,275.591
1205.71,275.591
1208.76,275.591
1211.82,275.591
1214.87,275.591
1217.93,275.591
1220.98,275.591
1224.04,275.591
1227.09,275.591
1230.14,275.591
1233.2,275.591
1236.25,275.591
1239.31,275.591
1242.36,275.591
1245.42,275.591
1248.47,275.591
1251.53,275.591
1254.58,275.591
1257.64,275.591
1260.69,275.591
1263.75,275.591
1266.8,275.591
1269.86,275.591
1272.91,275.591
1275.96,275.591
1279.02,511.811
1282.07,748.031
1285.13,984.252
1288.18,1456.69
1291.24,1692.91
1294.29,2165.35
1297.35,2874.02
1300.4,3582.68
1303.46,4291.34
1306.51,5000
1309.57,5708.66
1312.62,6653.54
1315.68,7598.43
1318.73,8307.09
1321.78,9251.97
1324.84,8307.09
1327.89,7834.65
1330.95,6181.1
1334,4527.56
1337.06,3110.24
1340.11,2401.57
1343.17,1929.13
1346.22,1929.13
1349.28,1929.13
1352.33,2165.35
1355.39,2401.57
1358.44,3346.46
1361.5,4527.56
1364.55,5944.88
1367.6,7598.43
1370.66,9015.75
1373.71,9724.41
1376.77,9724.41
1379.82,9488.19
1382.88,9015.75
1385.93,7362.2
1388.99,5472.44
1392.04,3818.9
1395.1,2637.8
1398.15,1692.91
1401.21,1220.47
1404.26,748.031
1407.32,511.811
1410.37,275.591
1413.42,275.591
1416.48,275.591
1419.53,275.591
1422.59,275.591
1425.64,275.591
1428.7,275.591
1431.75,275.591
1434.81,275.591
1437.86,275.591
1440.92,275.591
1443.97,275.591
1447.03,275.591
1450.08,275.591
1453.14,275.591
1456.19,275.591
1459.24,275.591
1462.3,275.591
1465.35,511.811
1468.41,748.031
1471.46,1220.47
1474.52,1929.13
1477.57,3110.24
1480.63,4527.56
1483.68,6181.1
1486.74,9015.75
1489.79,12559.1
1492.85,15157.5
1495.9,19173.2
1498.95,19645.7
1502.01,15629.9
1505.06,13740.2
1508.12,9960.63
1511.17,6417.32
1514.23,3818.9
1517.28,2165.35
1520.34,1220.47
1523.39,984.252
1526.45,984.252
1529.5,1220.47
1532.56,1692.91
1535.61,2637.8
1538.67,4291.34
1541.72,6181.1
1544.77,8543.31
1547.83,11378
1550.88,13267.7
1553.94,14212.6
1556.99,14448.8
1560.05,14921.3
1563.1,16338.6
1566.16,19173.2
1569.21,22952.8
1572.27,26023.6
1575.32,31456.7
1578.38,32165.4
1581.43,26496.1
1584.49,23897.6
1587.54,18700.8
1590.59,14448.8
1593.65,10905.5
1596.7,8543.31
1599.76,6653.54
1602.81,5000
1605.87,4055.12
1608.92,3110.24
1611.98,2401.57
1615.03,1929.13
1618.09,1456.69
1621.14,1220.47
1624.2,984.252
1627.25,748.031
1630.31,511.811
1633.36,275.591
1636.41,275.591
1639.47,275.591
1642.52,275.591
1645.58,275.591
1648.63,275.591
1651.69,275.591
1654.74,275.591
1657.8,275.591
1660.85,275.591
1663.91,275.591
1666.96,275.591
1670.02,275.591
1673.07,275.591
1676.13,275.591
1679.18,275.591
1682.23,275.591
1685.29,275.591
1688.34,275.591
1691.4,275.591
1694.45,275.591
1697.51,275.591
1700.56,275.591
1703.62,275.591
1706.67,275.591
1709.73,275.591
1712.78,275.591
1715.84,511.811
1718.89,748.031
1721.95,984.252
1725,1220.47
1728.05,1456.69
1731.11,1929.13
1734.16,2401.57
1737.22,3110.24
1740.27,3582.68
1743.33,4291.34
1746.38,5000
1749.44,5708.66
1752.49,6653.54
1755.55,7362.2
1758.6,8307.09
1761.66,9015.75
1764.71,9724.41
1767.77,10196.9
1770.82,10669.3
1773.87,10905.5
1776.93,10905.5
1779.98,10669.3
1783.04,10196.9
1786.09,9251.97
1789.15,8070.87
1792.2,6653.54
1795.26,5708.66
1798.31,4763.78
1801.37,3818.9
1804.42,2874.02
1807.48,2401.57
1810.53,1929.13
1813.59,1456.69
1816.64,1220.47
1819.69,984.252
1822.75,748.031
1825.8,511.811
1828.86,511.811
1831.91,275.591
1834.97,275.591
1838.02,275.591
1841.08,275.591
1844.13,275.591
1847.19,275.591
1850.24,275.591
1853.3,275.591
1856.35,275.591
1859.41,275.591
1862.46,275.591
1865.51,275.591
1868.57,275.591
1871.62,275.591
1874.68,275.591
1877.73,275.591
1880.79,275.591
1883.84,275.591
1886.9,275.591
1889.95,275.591
1893.01,275.591
1896.06,275.591
1899.12,275.591
1902.17,275.591
1905.23,275.591
1908.28,275.591
1911.33,275.591
1914.39,275.591
1917.44,275.591
1920.5,275.591
1923.55,275.591
1926.61,275.591
1929.66,275.591
1932.72,275.591
1935.77,275.591
1938.83,275.591
1941.88,275.591
1944.94,275.591
1947.99,275.591
1951.05,275.591
1954.1,275.591
1957.15,275.591
1960.21,275.591
1963.26,275.591
1966.32,275.591
1969.37,275.591
1972.43,275.591
1975.48,275.591
1978.54,275.591
1981.59,275.591
1984.65,275.591
1987.7,511.811
1990.76,511.811
1993.81,511.811
1996.86,748.031
1999.92,984.252
2002.97,1220.47
2006.03,1692.91
2009.08,1929.13
2012.14,2401.57
2015.19,3110.24
2018.25,3818.9
2021.3,4763.78
2024.36,5708.66
2027.41,6417.32
2030.47,6417.32
2033.52,6181.1
2036.58,5944.88
2039.63,5236.22
2042.68,5000
2045.74,4763.78
2048.79,4527.56
2051.85,3818.9
2054.9,3110.24
2057.96,2637.8
2061.01,1929.13
2064.07,1456.69
2067.12,1220.47
2070.18,748.031
2073.23,511.811
2076.29,511.811
2079.34,275.591
2082.4,275.591
2085.45,275.591
2088.5,275.591
2091.56,275.591
2094.61,275.591
2097.67,275.591
2100.72,275.591
2103.78,275.591
2106.83,275.591
2109.89,275.591
2112.94,275.591
2116,275.591
2119.05,275.591
2122.11,275.591
2125.16,275.591
2128.22,275.591
2131.27,275.591
2134.32,275.591
2137.38,275.591
2140.43,275.591
2143.49,275.591
2146.54,275.591
2149.6,275.591
2152.65,275.591
2155.71,275.591
2158.76,275.591
2161.82,275.591
2164.87,275.591
2167.93,275.591
2170.98,275.591
2174.04,511.811
2177.09,511.811
2180.14,748.031
2183.2,984.252
2186.25,1456.69
2189.31,1929.13
2192.36,2637.8
2195.42,3582.68
2198.47,5000
2201.53,6653.54
2204.58,8779.53
2207.64,11378
2210.69,15393.7
2213.75,21063
2216.8,27913.4
2219.86,36417.3
2222.91,41378
2225.96,45629.9
2229.02,41378
2232.07,36417.3
2235.13,26496.1
2238.18,17992.1
2241.24,11850.4
2244.29,7598.43
2247.35,5000
2250.4,3346.46
2253.46,2401.57
2256.51,1692.91
2259.57,1220.47
2262.62,984.252
2265.68,748.031
2268.73,511.811
2271.78,275.591
2274.84,275.591
2277.89,275.591
2280.95,275.591
2284,275.591
2287.06,275.591
2290.11,275.591
