,GP550R
RamanShit,Intensity
255.636,125.984
258.696,598.425
261.755,1732.28
264.815,2488.19
267.874,3055.12
270.934,2488.19
273.994,2393.7
277.053,1921.26
280.113,1259.84
283.172,692.913
286.232,1070.87
289.291,1165.35
292.351,1448.82
295.411,2015.75
298.47,2393.7
301.53,2393.7
304.589,2488.19
307.649,2582.68
310.709,3149.61
313.768,4944.88
316.828,8629.92
319.887,8913.39
322.947,6173.23
326.006,6173.23
329.066,4944.88
332.126,6173.23
335.185,6267.72
338.245,8629.92
341.304,9196.85
344.364,6173.23
347.424,5511.81
350.483,4094.49
353.543,2582.68
356.602,1165.35
359.662,409.449
362.721,220.472
365.781,220.472
368.841,220.472
371.9,314.961
374.96,409.449
378.019,787.402
381.079,1921.26
384.138,3055.12
387.198,4472.44
390.258,4188.98
393.317,3338.58
396.377,2960.63
399.436,2393.7
402.496,2015.75
405.556,2299.21
408.615,2393.7
411.675,3244.09
414.734,5133.86
417.794,6078.74
420.853,6929.13
423.913,6078.74
426.973,5889.76
430.032,5228.35
433.092,4566.93
436.151,4472.44
439.211,4000
442.271,4661.42
445.33,3433.07
448.39,2582.68
451.449,1354.33
454.509,692.913
457.568,409.449
460.628,220.472
463.688,409.449
466.747,503.937
469.807,692.913
472.866,1070.87
475.926,2110.24
478.986,2866.14
482.045,4188.98
485.105,2866.14
488.164,2393.7
491.224,1448.82
494.283,787.402
497.343,692.913
500.403,787.402
503.462,787.402
506.522,787.402
509.581,787.402
512.641,692.913
515.7,598.425
518.76,314.961
521.82,220.472
524.879,220.472
527.939,220.472
530.998,314.961
534.058,598.425
537.118,1070.87
540.177,1259.84
543.237,1354.33
546.296,1354.33
549.356,1448.82
552.415,1732.28
555.475,2299.21
558.535,2582.68
561.594,2582.68
564.654,2677.17
567.713,2677.17
570.773,2771.65
573.833,2582.68
576.892,2582.68
579.952,2582.68
583.011,2393.7
586.071,2299.21
589.13,2110.24
592.19,1637.8
595.25,1259.84
598.309,1259.84
601.369,1354.33
604.428,1637.8
607.488,2110.24
610.548,2488.19
613.607,2677.17
616.667,2866.14
619.726,2677.17
622.786,2299.21
625.845,1543.31
628.905,1070.87
631.965,976.378
635.024,1070.87
638.084,1165.35
641.143,1448.82
644.203,1165.35
647.262,976.378
650.322,692.913
653.382,409.449
656.441,314.961
659.501,409.449
662.56,598.425
665.62,1070.87
668.68,2015.75
671.739,3149.61
674.799,5228.35
677.858,5417.32
680.918,3433.07
683.977,2771.65
687.037,1637.8
690.097,1259.84
693.156,1165.35
696.216,1354.33
699.275,1732.28
702.335,3527.56
705.395,6929.13
708.454,11653.5
711.514,20629.9
714.573,21385.8
717.633,14110.2
720.692,11086.6
723.752,6078.74
726.812,3338.58
729.871,1921.26
732.931,1165.35
735.99,692.913
739.05,409.449
742.11,314.961
745.169,125.984
748.229,125.984
751.288,125.984
754.348,125.984
757.407,220.472
760.467,409.449
763.527,598.425
766.586,787.402
769.646,598.425
772.705,503.937
775.765,409.449
778.824,314.961
781.884,220.472
784.944,125.984
788.003,125.984
791.063,125.984
794.122,125.984
797.182,125.984
800.242,125.984
803.301,125.984
806.361,220.472
809.42,220.472
812.48,314.961
815.539,314.961
818.599,220.472
821.659,220.472
824.718,220.472
827.778,220.472
830.837,314.961
833.897,409.449
836.957,409.449
840.016,503.937
843.076,598.425
846.135,881.89
849.195,1070.87
852.254,1259.84
855.314,1354.33
858.374,1354.33
861.433,1448.82
864.493,1448.82
867.552,1448.82
870.612,1448.82
873.671,1448.82
876.731,1448.82
879.791,1543.31
882.85,1637.8
885.91,1732.28
888.969,2299.21
892.029,3338.58
895.089,5039.37
898.148,6078.74
901.208,7685.04
904.267,6078.74
907.327,5984.25
910.386,4850.39
913.446,3149.61
916.506,1826.77
919.565,1070.87
922.625,598.425
925.684,314.961
928.744,220.472
931.804,220.472
934.863,220.472
937.923,314.961
940.982,598.425
944.042,1165.35
947.101,2110.24
950.161,3055.12
953.221,4094.49
956.28,5417.32
959.34,7496.06
962.399,8913.39
965.459,11275.6
968.519,10897.6
971.578,10141.7
974.638,10992.1
977.697,11275.6
980.757,11559.1
983.816,9007.87
986.876,8157.48
989.936,7212.6
992.995,7118.11
996.055,6645.67
999.114,7118.11
1002.17,7496.06
1005.23,7968.5
1008.29,5322.83
1011.35,3433.07
1014.41,1921.26
1017.47,1070.87
1020.53,692.913
1023.59,503.937
1026.65,409.449
1029.71,409.449
1032.77,220.472
1035.83,220.472
1038.89,220.472
1041.95,220.472
1045.01,220.472
1048.07,314.961
1051.13,409.449
1054.19,692.913
1057.25,881.89
1060.31,1165.35
1063.37,881.89
1066.43,787.402
1069.48,692.913
1072.54,692.913
1075.6,787.402
1078.66,976.378
1081.72,1070.87
1084.78,1354.33
1087.84,976.378
1090.9,787.402
1093.96,503.937
1097.02,409.449
1100.08,314.961
1103.14,314.961
1106.2,314.961
1109.26,314.961
1112.32,220.472
1115.38,220.472
1118.44,125.984
1121.5,125.984
1124.56,220.472
1127.62,314.961
1130.68,409.449
1133.74,503.937
1136.8,692.913
1139.86,881.89
1142.91,1165.35
1145.97,1259.84
1149.03,1543.31
1152.09,1637.8
1155.15,1732.28
1158.21,1921.26
1161.27,2110.24
1164.33,2393.7
1167.39,2582.68
1170.45,2582.68
1173.51,2393.7
1176.57,2015.75
1179.63,1637.8
1182.69,1165.35
1185.75,976.378
1188.81,881.89
1191.87,787.402
1194.93,692.913
1197.99,598.425
1201.05,598.425
1204.11,692.913
1207.17,787.402
1210.23,881.89
1213.29,1070.87
1216.34,1165.35
1219.4,1165.35
1222.46,1259.84
1225.52,1259.84
1228.58,1165.35
1231.64,1070.87
1234.7,881.89
1237.76,787.402
1240.82,598.425
1243.88,503.937
1246.94,314.961
1250,314.961
1253.06,314.961
1256.12,220.472
1259.18,125.984
1262.24,125.984
1265.3,220.472
1268.36,314.961
1271.42,409.449
1274.48,598.425
1277.54,598.425
1280.6,692.913
1283.66,692.913
1286.71,598.425
1289.77,598.425
1292.83,409.449
1295.89,220.472
1298.95,125.984
1302.01,125.984
1305.07,125.984
1308.13,220.472
1311.19,220.472
1314.25,314.961
1317.31,409.449
1320.37,692.913
1323.43,881.89
1326.49,1165.35
1329.55,1354.33
1332.61,1637.8
1335.67,1921.26
1338.73,2204.72
1341.79,2393.7
1344.85,2393.7
1347.91,2299.21
1350.97,2204.72
1354.03,1921.26
1357.09,1543.31
1360.14,1165.35
1363.2,881.89
1366.26,692.913
1369.32,503.937
1372.38,409.449
1375.44,409.449
1378.5,314.961
1381.56,314.961
1384.62,220.472
1387.68,220.472
1390.74,220.472
1393.8,314.961
1396.86,314.961
1399.92,409.449
1402.98,503.937
1406.04,503.937
1409.1,503.937
1412.16,503.937
1415.22,503.937
1418.28,409.449
1421.34,314.961
1424.4,314.961
1427.46,125.984
1430.52,125.984
1433.57,125.984
1436.63,125.984
1439.69,125.984
1442.75,125.984
1445.81,125.984
1448.87,125.984
1451.93,125.984
1454.99,125.984
1458.05,125.984
1461.11,125.984
1464.17,125.984
1467.23,220.472
1470.29,314.961
1473.35,314.961
1476.41,314.961
1479.47,409.449
1482.53,503.937
1485.59,598.425
1488.65,692.913
1491.71,787.402
1494.77,787.402
1497.83,881.89
1500.89,976.378
1503.95,976.378
1507,976.378
1510.06,976.378
1513.12,976.378
1516.18,976.378
1519.24,976.378
1522.3,787.402
1525.36,692.913
1528.42,598.425
1531.48,503.937
1534.54,503.937
1537.6,409.449
1540.66,314.961
1543.72,314.961
1546.78,314.961
1549.84,409.449
1552.9,503.937
1555.96,503.937
1559.02,503.937
1562.08,598.425
1565.14,692.913
1568.2,787.402
1571.26,881.89
1574.32,881.89
1577.38,787.402
1580.43,787.402
1583.49,787.402
1586.55,787.402
1589.61,787.402
1592.67,787.402
1595.73,787.402
1598.79,787.402
1601.85,787.402
1604.91,787.402
1607.97,881.89
1611.03,787.402
1614.09,692.913
1617.15,503.937
1620.21,409.449
1623.27,409.449
1626.33,409.449
1629.39,409.449
1632.45,314.961
1635.51,314.961
1638.57,314.961
1641.63,314.961
1644.69,314.961
1647.75,220.472
1650.81,220.472
1653.86,220.472
1656.92,125.984
1659.98,125.984
1663.04,125.984
1666.1,125.984
1669.16,125.984
1672.22,31.4961
1675.28,31.4961
1678.34,31.4961
1681.4,31.4961
1684.46,31.4961
1687.52,125.984
1690.58,125.984
1693.64,125.984
1696.7,125.984
1699.76,125.984
1702.82,125.984
1705.88,220.472
1708.94,220.472
1712,220.472
1715.06,125.984
1718.12,125.984
1721.18,125.984
1724.24,125.984
1727.29,125.984
1730.35,125.984
1733.41,125.984
1736.47,220.472
1739.53,220.472
1742.59,220.472
1745.65,220.472
1748.71,220.472
1751.77,220.472
1754.83,220.472
1757.89,220.472
1760.95,220.472
1764.01,220.472
1767.07,220.472
1770.13,314.961
1773.19,314.961
1776.25,314.961
1779.31,314.961
1782.37,220.472
1785.43,220.472
1788.49,220.472
1791.55,220.472
1794.61,220.472
1797.67,220.472
1800.72,220.472
1803.78,220.472
1806.84,220.472
1809.9,220.472
1812.96,220.472
1816.02,220.472
1819.08,220.472
1822.14,220.472
1825.2,220.472
1828.26,220.472
1831.32,220.472
1834.38,220.472
1837.44,220.472
1840.5,220.472
1843.56,220.472
1846.62,314.961
1849.68,314.961
1852.74,314.961
1855.8,409.449
1858.86,503.937
1861.92,598.425
1864.98,692.913
1868.04,787.402
1871.1,881.89
1874.15,976.378
1877.21,1070.87
1880.27,1165.35
1883.33,1165.35
1886.39,1259.84
1889.45,1259.84
1892.51,1259.84
1895.57,1259.84
1898.63,1259.84
1901.69,1259.84
1904.75,1070.87
1907.81,976.378
1910.87,881.89
1913.93,692.913
1916.99,598.425
1920.05,503.937
1923.11,409.449
1926.17,314.961
1929.23,220.472
1932.29,220.472
1935.35,125.984
1938.41,125.984
1941.47,125.984
1944.52,125.984
1947.58,125.984
1950.64,125.984
1953.7,125.984
1956.76,125.984
1959.82,125.984
1962.88,31.4961
1965.94,31.4961
1969,31.4961
1972.06,31.4961
1975.12,125.984
1978.18,125.984
1981.24,125.984
1984.3,125.984
1987.36,125.984
1990.42,125.984
1993.48,125.984
1996.54,220.472
1999.6,220.472
2002.66,125.984
2005.72,125.984
2008.78,125.984
2011.84,31.4961
2014.9,31.4961
2017.95,31.4961
2021.01,31.4961
2024.07,125.984
2027.13,125.984
2030.19,125.984
2033.25,125.984
2036.31,125.984
2039.37,125.984
2042.43,220.472
2045.49,220.472
2048.55,220.472
2051.61,314.961
2054.67,314.961
2057.73,314.961
2060.79,409.449
2063.85,409.449
2066.91,409.449
2069.97,409.449
2073.03,409.449
2076.09,409.449
2079.15,409.449
2082.21,409.449
2085.27,409.449
2088.33,409.449
2091.38,409.449
2094.44,409.449
2097.5,314.961
2100.56,314.961
2103.62,314.961
2106.68,220.472
2109.74,220.472
2112.8,220.472
2115.86,220.472
2118.92,220.472
2121.98,220.472
2125.04,220.472
2128.1,220.472
2131.16,220.472
2134.22,220.472
2137.28,220.472
2140.34,220.472
2143.4,220.472
2146.46,125.984
2149.52,125.984
2152.58,125.984
2155.64,125.984
2158.7,125.984
2161.76,125.984
2164.81,125.984
2167.87,125.984
2170.93,125.984
2173.99,125.984
2177.05,125.984
2180.11,125.984
2183.17,125.984
2186.23,125.984
2189.29,125.984
2192.35,125.984
2195.41,125.984
2198.47,125.984
2201.53,125.984
2204.59,125.984
2207.65,125.984
2210.71,125.984
2213.77,125.984
2216.83,125.984
2219.89,125.984
2222.95,220.472
2226.01,220.472
2229.07,220.472
2232.13,220.472
2235.19,220.472
2238.24,125.984
2241.3,125.984
2244.36,125.984
2247.42,125.984
2250.48,125.984
2253.54,125.984
2256.6,125.984
2259.66,125.984
2262.72,125.984
2265.78,125.984
2268.84,125.984
2271.9,125.984
2274.96,125.984
2278.02,125.984
2281.08,125.984
2284.14,125.984
2287.2,125.984
2290.26,125.984
