,GP550R
RamanShit,Intensity
258.762,76.4706
261.817,288.235
264.871,711.765
267.926,958.824
270.981,1170.59
274.035,958.824
277.09,817.647
280.145,500
283.199,217.647
286.254,111.765
289.309,111.765
292.363,147.059
295.418,217.647
298.473,358.824
301.527,500
304.582,535.294
307.637,570.588
310.691,605.882
313.746,817.647
316.801,1382.35
319.855,1770.59
322.91,2194.12
325.965,1735.29
329.019,1735.29
332.074,1382.35
335.129,1735.29
338.183,1841.18
341.238,2582.35
344.293,2794.12
347.347,1841.18
350.402,1664.71
353.457,1311.76
356.511,852.941
359.566,358.824
362.621,111.765
365.675,76.4706
368.73,76.4706
371.785,76.4706
374.839,111.765
377.894,182.353
380.949,288.235
384.003,641.176
387.058,1064.71
390.113,1382.35
393.167,1170.59
396.222,1135.29
399.277,1029.41
402.331,852.941
405.386,747.059
408.441,852.941
411.495,888.235
414.55,1205.88
417.605,1876.47
420.659,2229.41
423.714,2582.35
426.768,2229.41
429.823,1982.35
432.878,1700
435.932,1664.71
438.987,1558.82
442.042,1664.71
445.096,1841.18
448.151,1241.18
451.206,958.824
454.26,464.706
457.315,217.647
460.37,147.059
463.424,111.765
466.479,182.353
469.534,252.941
472.588,394.118
475.643,676.471
478.698,1241.18
481.752,1629.41
484.807,2370.59
487.862,1629.41
490.916,1558.82
493.971,1135.29
497.026,676.471
500.08,570.588
503.135,535.294
506.19,570.588
509.244,570.588
512.299,535.294
515.354,500
518.408,429.412
521.463,288.235
524.518,217.647
527.572,217.647
530.627,217.647
533.682,252.941
536.736,323.529
539.791,464.706
542.846,394.118
545.9,394.118
548.955,429.412
552.01,429.412
555.064,535.294
558.119,711.765
561.174,852.941
564.228,923.529
567.283,923.529
570.338,923.529
573.392,1029.41
576.447,1100
579.502,923.529
582.556,923.529
585.611,888.235
588.666,817.647
591.72,782.353
594.775,605.882
597.83,464.706
600.884,464.706
603.939,464.706
606.994,605.882
610.048,817.647
613.103,958.824
616.158,994.118
619.212,994.118
622.267,958.824
625.322,852.941
628.376,570.588
631.431,464.706
634.486,429.412
637.54,464.706
640.595,500
643.65,605.882
646.704,464.706
649.759,429.412
652.814,288.235
655.868,182.353
658.923,147.059
661.977,111.765
665.032,217.647
668.087,358.824
671.141,711.765
674.196,1064.71
677.251,1805.88
680.305,1876.47
683.36,1135.29
686.415,888.235
689.469,500
692.524,358.824
695.579,323.529
698.633,394.118
701.688,570.588
704.743,1241.18
707.797,2405.88
710.852,3958.82
713.907,6958.82
716.961,7029.41
720.016,4841.18
723.071,3817.65
726.125,2158.82
729.18,1205.88
732.235,711.765
735.289,464.706
738.344,323.529
741.399,217.647
744.453,182.353
747.508,111.765
750.563,76.4706
753.617,76.4706
756.672,76.4706
759.727,76.4706
762.781,111.765
765.836,147.059
768.891,147.059
771.945,147.059
775,111.765
778.055,111.765
781.109,76.4706
784.164,76.4706
787.219,76.4706
790.273,41.1765
793.328,41.1765
796.383,76.4706
799.437,76.4706
802.492,76.4706
805.547,111.765
808.601,147.059
811.656,217.647
814.711,252.941
817.765,252.941
820.82,217.647
823.875,217.647
826.929,217.647
829.984,252.941
833.039,288.235
836.093,288.235
839.148,323.529
842.203,323.529
845.257,323.529
848.312,358.824
851.367,429.412
854.421,500
857.476,535.294
860.531,570.588
863.585,570.588
866.64,570.588
869.695,535.294
872.749,535.294
875.804,535.294
878.859,535.294
881.913,535.294
884.968,570.588
888.023,676.471
891.077,852.941
894.132,1241.18
897.186,1982.35
900.241,2441.18
903.296,3076.47
906.35,2441.18
909.405,2405.88
912.46,2017.65
915.514,1276.47
918.569,747.059
921.624,429.412
924.678,217.647
927.733,147.059
930.788,111.765
933.842,111.765
936.897,111.765
939.952,147.059
943.006,217.647
946.061,394.118
949.116,711.765
952.17,1029.41
955.225,1347.06
958.28,1735.29
961.334,2405.88
964.389,3005.88
967.444,3782.35
970.498,3676.47
973.553,3641.18
976.608,3570.59
979.662,3994.12
982.717,4100
985.772,3252.94
988.826,2970.59
991.881,2652.94
994.936,2617.65
997.99,2582.35
1001.05,2582.35
1004.1,2935.29
1007.15,2441.18
1010.21,2088.24
1013.26,1382.35
1016.32,782.353
1019.37,464.706
1022.43,323.529
1025.48,252.941
1028.54,182.353
1031.59,147.059
1034.65,111.765
1037.7,111.765
1040.76,111.765
1043.81,111.765
1046.86,147.059
1049.92,147.059
1052.97,182.353
1056.03,252.941
1059.08,323.529
1062.14,323.529
1065.19,323.529
1068.25,288.235
1071.3,217.647
1074.36,252.941
1077.41,252.941
1080.47,252.941
1083.52,394.118
1086.58,429.412
1089.63,252.941
1092.68,182.353
1095.74,147.059
1098.79,182.353
1101.85,217.647
1104.9,252.941
1107.96,252.941
1111.01,217.647
1114.07,217.647
1117.12,182.353
1120.18,147.059
1123.23,147.059
1126.29,182.353
1129.34,252.941
1132.4,394.118
1135.45,535.294
1138.5,676.471
1141.56,923.529
1144.61,1170.59
1147.67,1347.06
1150.72,1523.53
1153.78,1629.41
1156.83,1735.29
1159.89,1841.18
1162.94,2088.24
1166,2335.29
1169.05,2441.18
1172.11,2547.06
1175.16,2194.12
1178.22,1700
1181.27,1311.76
1184.32,888.235
1187.38,605.882
1190.43,464.706
1193.49,358.824
1196.54,288.235
1199.6,217.647
1202.65,252.941
1205.71,288.235
1208.76,358.824
1211.82,535.294
1214.87,711.765
1217.93,888.235
1220.98,994.118
1224.04,994.118
1227.09,994.118
1230.14,958.824
1233.2,852.941
1236.25,676.471
1239.31,535.294
1242.36,429.412
1245.42,323.529
1248.47,252.941
1251.53,217.647
1254.58,182.353
1257.64,111.765
1260.69,111.765
1263.75,111.765
1266.8,147.059
1269.86,252.941
1272.91,394.118
1275.96,535.294
1279.02,676.471
1282.07,711.765
1285.13,782.353
1288.18,676.471
1291.24,605.882
1294.29,429.412
1297.35,252.941
1300.4,182.353
1303.46,182.353
1306.51,182.353
1309.57,182.353
1312.62,217.647
1315.68,252.941
1318.73,288.235
1321.78,429.412
1324.84,570.588
1327.89,782.353
1330.95,994.118
1334,1241.18
1337.06,1558.82
1340.11,1841.18
1343.17,2017.65
1346.22,2194.12
1349.28,2017.65
1352.33,1982.35
1355.39,1805.88
1358.44,1523.53
1361.5,1276.47
1364.55,1029.41
1367.6,817.647
1370.66,641.176
1373.71,535.294
1376.77,500
1379.82,394.118
1382.88,358.824
1385.93,358.824
1388.99,358.824
1392.04,394.118
1395.1,429.412
1398.15,464.706
1401.21,535.294
1404.26,570.588
1407.32,641.176
1410.37,641.176
1413.42,641.176
1416.48,605.882
1419.53,535.294
1422.59,394.118
1425.64,288.235
1428.7,182.353
1431.75,111.765
1434.81,76.4706
1437.86,76.4706
1440.92,76.4706
1443.97,76.4706
1447.03,76.4706
1450.08,76.4706
1453.14,76.4706
1456.19,41.1765
1459.24,41.1765
1462.3,41.1765
1465.35,41.1765
1468.41,41.1765
1471.46,76.4706
1474.52,111.765
1477.57,147.059
1480.63,182.353
1483.68,217.647
1486.74,288.235
1489.79,323.529
1492.85,323.529
1495.9,358.824
1498.95,394.118
1502.01,394.118
1505.06,429.412
1508.12,429.412
1511.17,429.412
1514.23,429.412
1517.28,429.412
1520.34,358.824
1523.39,323.529
1526.45,252.941
1529.5,217.647
1532.56,182.353
1535.61,182.353
1538.67,147.059
1541.72,147.059
1544.77,147.059
1547.83,147.059
1550.88,217.647
1553.94,323.529
1556.99,429.412
1560.05,464.706
1563.1,535.294
1566.16,641.176
1569.21,747.059
1572.27,747.059
1575.32,747.059
1578.38,747.059
1581.43,711.765
1584.49,711.765
1587.54,711.765
1590.59,711.765
1593.65,711.765
1596.7,747.059
1599.76,747.059
1602.81,782.353
1605.87,817.647
1608.92,817.647
1611.98,782.353
1615.03,711.765
1618.09,535.294
1621.14,394.118
1624.2,288.235
1627.25,252.941
1630.31,217.647
1633.36,182.353
1636.41,147.059
1639.47,111.765
1642.52,111.765
1645.58,111.765
1648.63,111.765
1651.69,111.765
1654.74,111.765
1657.8,111.765
1660.85,76.4706
1663.91,76.4706
1666.96,41.1765
1670.02,41.1765
1673.07,41.1765
1676.13,76.4706
1679.18,76.4706
1682.23,76.4706
1685.29,76.4706
1688.34,111.765
1691.4,111.765
1694.45,111.765
1697.51,111.765
1700.56,182.353
1703.62,182.353
1706.67,217.647
1709.73,217.647
1712.78,217.647
1715.84,182.353
1718.89,147.059
1721.95,111.765
1725,111.765
1728.05,111.765
1731.11,111.765
1734.16,111.765
1737.22,111.765
1740.27,111.765
1743.33,111.765
1746.38,111.765
1749.44,111.765
1752.49,111.765
1755.55,111.765
1758.6,111.765
1761.66,147.059
1764.71,147.059
1767.77,182.353
1770.82,182.353
1773.87,182.353
1776.93,182.353
1779.98,182.353
1783.04,182.353
1786.09,182.353
1789.15,147.059
1792.2,147.059
1795.26,147.059
1798.31,111.765
1801.37,111.765
1804.42,111.765
1807.48,111.765
1810.53,147.059
1813.59,147.059
1816.64,147.059
1819.69,147.059
1822.75,147.059
1825.8,111.765
1828.86,111.765
1831.91,76.4706
1834.97,76.4706
1838.02,76.4706
1841.08,76.4706
1844.13,111.765
1847.19,147.059
1850.24,182.353
1853.3,182.353
1856.35,217.647
1859.41,217.647
1862.46,252.941
1865.51,252.941
1868.57,288.235
1871.62,323.529
1874.68,358.824
1877.73,394.118
1880.79,429.412
1883.84,464.706
1886.9,464.706
1889.95,464.706
1893.01,429.412
1896.06,429.412
1899.12,394.118
1902.17,394.118
1905.23,358.824
1908.28,323.529
1911.33,288.235
1914.39,252.941
1917.44,217.647
1920.5,182.353
1923.55,147.059
1926.61,111.765
1929.66,111.765
1932.72,111.765
1935.77,111.765
1938.83,147.059
1941.88,111.765
1944.94,111.765
1947.99,111.765
1951.05,111.765
1954.1,111.765
1957.15,111.765
1960.21,111.765
1963.26,111.765
1966.32,111.765
1969.37,76.4706
1972.43,76.4706
1975.48,76.4706
1978.54,76.4706
1981.59,76.4706
1984.65,76.4706
1987.7,76.4706
1990.76,76.4706
1993.81,76.4706
1996.86,76.4706
1999.92,76.4706
2002.97,76.4706
2006.03,76.4706
2009.08,76.4706
2012.14,76.4706
2015.19,76.4706
2018.25,76.4706
2021.3,76.4706
2024.36,76.4706
2027.41,111.765
2030.47,111.765
2033.52,111.765
2036.58,147.059
2039.63,147.059
2042.68,111.765
2045.74,182.353
2048.79,217.647
2051.85,217.647
2054.9,217.647
2057.96,217.647
2061.01,217.647
2064.07,182.353
2067.12,147.059
2070.18,147.059
2073.23,147.059
2076.29,147.059
2079.34,147.059
2082.4,147.059
2085.45,147.059
2088.5,147.059
2091.56,147.059
2094.61,111.765
2097.67,111.765
2100.72,111.765
2103.78,76.4706
2106.83,76.4706
2109.89,76.4706
2112.94,76.4706
2116,76.4706
2119.05,76.4706
2122.11,76.4706
2125.16,76.4706
2128.22,76.4706
2131.27,76.4706
2134.32,76.4706
2137.38,76.4706
2140.43,76.4706
2143.49,76.4706
2146.54,41.1765
2149.6,41.1765
2152.65,41.1765
2155.71,41.1765
2158.76,41.1765
2161.82,41.1765
2164.87,41.1765
2167.93,41.1765
2170.98,41.1765
2174.04,41.1765
2177.09,41.1765
2180.14,41.1765
2183.2,41.1765
2186.25,41.1765
2189.31,41.1765
2192.36,41.1765
2195.42,41.1765
2198.47,41.1765
2201.53,41.1765
2204.58,41.1765
2207.64,76.4706
2210.69,111.765
2213.75,111.765
2216.8,147.059
2219.86,147.059
2222.91,147.059
2225.96,147.059
2229.02,111.765
2232.07,111.765
2235.13,111.765
2238.18,76.4706
2241.24,76.4706
2244.29,76.4706
2247.35,76.4706
2250.4,76.4706
2253.46,76.4706
2256.51,76.4706
2259.57,76.4706
2262.62,41.1765
2265.68,41.1765
2268.73,41.1765
2271.78,41.1765
2274.84,41.1765
2277.89,41.1765
2280.95,41.1765
2284,41.1765
2287.06,41.1765
2290.11,-29.4118
