,GP550R
RamanShit,Intensity
258.828,220.472
261.878,1165.35
264.928,2677.17
267.978,4283.46
271.027,5039.37
274.077,5700.79
277.127,4755.91
280.177,3905.51
283.226,2015.75
286.276,976.378
289.326,787.402
292.376,976.378
295.425,1165.35
298.475,1732.28
301.525,2204.72
304.575,2299.21
307.624,2488.19
310.674,2866.14
313.724,3244.09
316.774,3527.56
319.823,3716.54
322.873,5039.37
325.923,4094.49
328.973,4377.95
332.022,4472.44
335.072,4566.93
338.122,5606.3
341.172,8440.94
344.222,8818.9
347.271,6645.67
350.321,6078.74
353.371,4850.39
356.421,3244.09
359.47,1448.82
362.52,409.449
365.57,125.984
368.62,125.984
371.669,125.984
374.719,314.961
377.769,503.937
380.819,976.378
383.868,2015.75
386.918,3338.58
389.968,4755.91
393.018,4377.95
396.067,3716.54
399.117,3716.54
402.167,3433.07
405.217,3716.54
408.266,3811.02
411.316,5133.86
414.366,7779.53
417.416,9952.76
420.465,10236.2
423.515,8818.9
426.565,8157.48
429.615,6551.18
432.665,5700.79
435.714,5606.3
438.764,4944.88
441.814,5606.3
444.864,5984.25
447.913,4283.46
450.963,3244.09
454.013,1543.31
457.063,692.913
460.112,314.961
463.162,220.472
466.212,314.961
469.262,503.937
472.311,881.89
475.361,1448.82
478.411,2866.14
481.461,3905.51
484.51,5889.76
487.56,3905.51
490.61,3244.09
493.66,1826.77
496.709,976.378
499.759,976.378
502.809,976.378
505.859,1070.87
508.909,1259.84
511.958,1070.87
515.008,976.378
518.058,692.913
521.108,409.449
524.157,220.472
527.207,220.472
530.257,220.472
533.307,220.472
536.356,314.961
539.406,503.937
542.456,314.961
545.506,314.961
548.555,314.961
551.605,409.449
554.655,598.425
557.705,976.378
560.754,1259.84
563.804,1637.8
566.854,2110.24
569.904,2582.68
572.953,3433.07
576.003,3244.09
579.053,3055.12
582.103,2866.14
585.152,2771.65
588.202,2771.65
591.252,2393.7
594.302,1637.8
597.352,881.89
600.401,598.425
603.451,598.425
606.501,692.913
609.551,881.89
612.6,1448.82
615.65,1921.26
618.7,2960.63
621.75,3149.61
624.799,1921.26
627.849,1543.31
630.899,976.378
633.949,881.89
636.998,976.378
640.048,1070.87
643.098,1165.35
646.148,976.378
649.197,881.89
652.247,503.937
655.297,220.472
658.347,220.472
661.396,220.472
664.446,409.449
667.496,787.402
670.546,1543.31
673.596,2299.21
676.645,3527.56
679.695,3716.54
682.745,2299.21
685.795,1921.26
688.844,1354.33
691.894,1165.35
694.944,1354.33
697.994,1448.82
701.043,2015.75
704.093,4000
707.143,7496.06
710.193,11559.1
713.242,19874
716.292,17322.8
719.342,13354.3
722.392,10519.7
725.441,5984.25
728.491,3338.58
731.541,2015.75
734.591,1259.84
737.64,787.402
740.69,503.937
743.74,314.961
746.79,220.472
749.839,220.472
752.889,220.472
755.939,220.472
758.989,314.961
762.039,598.425
765.088,787.402
768.138,1070.87
771.188,787.402
774.238,692.913
777.287,598.425
780.337,409.449
783.387,220.472
786.437,125.984
789.486,125.984
792.536,125.984
795.586,125.984
798.636,125.984
801.685,220.472
804.735,314.961
807.785,409.449
810.835,598.425
813.884,787.402
816.934,598.425
819.984,503.937
823.034,220.472
826.083,125.984
829.133,125.984
832.183,125.984
835.233,125.984
838.283,125.984
841.332,125.984
844.382,220.472
847.432,409.449
850.482,598.425
853.531,692.913
856.581,692.913
859.631,692.913
862.681,598.425
865.73,503.937
868.78,409.449
871.83,409.449
874.88,409.449
877.929,503.937
880.979,598.425
884.029,881.89
887.079,1543.31
890.128,2677.17
893.178,4283.46
896.228,5984.25
899.278,8535.43
902.327,8724.41
905.377,6551.18
908.427,5606.3
911.477,3716.54
914.526,2204.72
917.576,1070.87
920.626,503.937
923.676,314.961
926.726,314.961
929.775,314.961
932.825,314.961
935.875,409.449
938.925,503.937
941.974,787.402
945.024,1732.28
948.074,3149.61
951.124,4566.93
954.173,5606.3
957.223,6456.69
960.273,7874.02
963.323,10425.2
966.372,10803.1
969.422,10141.7
972.472,9858.27
975.522,10141.7
978.571,10992.1
981.621,11275.6
984.671,9385.83
987.721,8913.39
990.77,7779.53
993.82,7212.6
996.87,7118.11
999.92,6929.13
1002.97,7496.06
1006.02,7874.02
1009.07,5700.79
1012.12,4094.49
1015.17,2488.19
1018.22,1448.82
1021.27,881.89
1024.32,692.913
1027.37,598.425
1030.42,503.937
1033.47,220.472
1036.52,125.984
1039.57,125.984
1042.62,125.984
1045.67,125.984
1048.72,125.984
1051.77,220.472
1054.82,314.961
1057.87,503.937
1060.91,503.937
1063.96,503.937
1067.01,409.449
1070.06,314.961
1073.11,314.961
1076.16,409.449
1079.21,598.425
1082.26,787.402
1085.31,1070.87
1088.36,787.402
1091.41,692.913
1094.46,503.937
1097.51,409.449
1100.56,503.937
1103.61,503.937
1106.66,503.937
1109.71,503.937
1112.76,503.937
1115.81,409.449
1118.86,314.961
1121.91,220.472
1124.96,220.472
1128.01,125.984
1131.06,125.984
1134.11,31.4961
1137.16,31.4961
1140.21,125.984
1143.26,125.984
1146.31,125.984
1149.36,125.984
1152.41,125.984
1155.46,125.984
1158.51,125.984
1161.56,125.984
1164.61,125.984
1167.66,125.984
1170.71,125.984
1173.76,125.984
1176.81,125.984
1179.86,125.984
1182.91,125.984
1185.96,220.472
1189,220.472
1192.05,220.472
1195.1,125.984
1198.15,125.984
1201.2,125.984
1204.25,125.984
1207.3,125.984
1210.35,125.984
1213.4,220.472
1216.45,125.984
1219.5,125.984
1222.55,125.984
1225.6,125.984
1228.65,125.984
1231.7,125.984
1234.75,31.4961
1237.8,31.4961
1240.85,31.4961
1243.9,31.4961
1246.95,125.984
1250,125.984
1253.05,125.984
1256.1,125.984
1259.15,125.984
1262.2,125.984
1265.25,125.984
1268.3,125.984
1271.35,125.984
1274.4,125.984
1277.45,125.984
1280.5,125.984
1283.55,125.984
1286.6,125.984
1289.65,125.984
1292.7,125.984
1295.75,125.984
1298.8,125.984
1301.85,125.984
1304.9,125.984
1307.95,125.984
1311,220.472
1314.04,220.472
1317.09,314.961
1320.14,314.961
1323.19,409.449
1326.24,503.937
1329.29,598.425
1332.34,692.913
1335.39,692.913
1338.44,787.402
1341.49,787.402
1344.54,787.402
1347.59,692.913
1350.64,692.913
1353.69,598.425
1356.74,503.937
1359.79,409.449
1362.84,409.449
1365.89,314.961
1368.94,314.961
1371.99,314.961
1375.04,314.961
1378.09,314.961
1381.14,314.961
1384.19,409.449
1387.24,409.449
1390.29,409.449
1393.34,409.449
1396.39,314.961
1399.44,314.961
1402.49,220.472
1405.54,220.472
1408.59,125.984
1411.64,125.984
1414.69,125.984
1417.74,125.984
1420.79,125.984
1423.84,125.984
1426.89,125.984
1429.94,125.984
1432.99,125.984
1436.04,125.984
1439.09,125.984
1442.13,125.984
1445.18,125.984
1448.23,125.984
1451.28,125.984
1454.33,125.984
1457.38,125.984
1460.43,125.984
1463.48,125.984
1466.53,125.984
1469.58,125.984
1472.63,125.984
1475.68,125.984
1478.73,125.984
1481.78,220.472
1484.83,220.472
1487.88,314.961
1490.93,409.449
1493.98,503.937
1497.03,598.425
1500.08,692.913
1503.13,787.402
1506.18,881.89
1509.23,881.89
1512.28,976.378
1515.33,976.378
1518.38,976.378
1521.43,881.89
1524.48,787.402
1527.53,692.913
1530.58,598.425
1533.63,409.449
1536.68,314.961
1539.73,314.961
1542.78,220.472
1545.83,125.984
1548.88,125.984
1551.93,125.984
1554.98,125.984
1558.03,220.472
1561.08,125.984
1564.13,125.984
1567.17,125.984
1570.22,125.984
1573.27,125.984
1576.32,220.472
1579.37,220.472
1582.42,220.472
1585.47,220.472
1588.52,220.472
1591.57,220.472
1594.62,314.961
1597.67,314.961
1600.72,314.961
1603.77,314.961
1606.82,409.449
1609.87,409.449
1612.92,409.449
1615.97,503.937
1619.02,503.937
1622.07,503.937
1625.12,598.425
1628.17,598.425
1631.22,692.913
1634.27,598.425
1637.32,598.425
1640.37,598.425
1643.42,598.425
1646.47,503.937
1649.52,503.937
1652.57,409.449
1655.62,314.961
1658.67,314.961
1661.72,220.472
1664.77,125.984
1667.82,125.984
1670.87,125.984
1673.92,125.984
1676.97,125.984
1680.02,125.984
1683.07,125.984
1686.12,125.984
1689.17,125.984
1692.22,125.984
1695.26,125.984
1698.31,125.984
1701.36,125.984
1704.41,125.984
1707.46,125.984
1710.51,125.984
1713.56,125.984
1716.61,125.984
1719.66,125.984
1722.71,125.984
1725.76,125.984
1728.81,125.984
1731.86,125.984
1734.91,125.984
1737.96,125.984
1741.01,125.984
1744.06,125.984
1747.11,125.984
1750.16,125.984
1753.21,125.984
1756.26,125.984
1759.31,125.984
1762.36,125.984
1765.41,125.984
1768.46,125.984
1771.51,125.984
1774.56,125.984
1777.61,125.984
1780.66,125.984
1783.71,125.984
1786.76,125.984
1789.81,125.984
1792.86,125.984
1795.91,125.984
1798.96,125.984
1802.01,125.984
1805.06,125.984
1808.11,125.984
1811.16,125.984
1814.21,125.984
1817.26,125.984
1820.3,125.984
1823.35,125.984
1826.4,125.984
1829.45,125.984
1832.5,125.984
1835.55,125.984
1838.6,125.984
1841.65,125.984
1844.7,125.984
1847.75,125.984
1850.8,125.984
1853.85,125.984
1856.9,220.472
1859.95,220.472
1863,314.961
1866.05,409.449
1869.1,409.449
1872.15,503.937
1875.2,598.425
1878.25,692.913
1881.3,787.402
1884.35,787.402
1887.4,881.89
1890.45,881.89
1893.5,976.378
1896.55,976.378
1899.6,976.378
1902.65,976.378
1905.7,976.378
1908.75,881.89
1911.8,787.402
1914.85,692.913
1917.9,598.425
1920.95,503.937
1924,409.449
1927.05,314.961
1930.1,314.961
1933.15,220.472
1936.2,220.472
1939.25,220.472
1942.3,125.984
1945.35,125.984
1948.39,125.984
1951.44,125.984
1954.49,125.984
1957.54,125.984
1960.59,125.984
1963.64,125.984
1966.69,125.984
1969.74,125.984
1972.79,125.984
1975.84,125.984
1978.89,125.984
1981.94,125.984
1984.99,125.984
1988.04,125.984
1991.09,125.984
1994.14,125.984
1997.19,125.984
2000.24,125.984
2003.29,125.984
2006.34,125.984
2009.39,125.984
2012.44,125.984
2015.49,125.984
2018.54,125.984
2021.59,125.984
2024.64,125.984
2027.69,125.984
2030.74,125.984
2033.79,125.984
2036.84,125.984
2039.89,125.984
2042.94,125.984
2045.99,125.984
2049.04,125.984
2052.09,220.472
2055.14,220.472
2058.19,220.472
2061.24,220.472
2064.29,220.472
2067.34,220.472
2070.39,220.472
2073.43,220.472
2076.48,220.472
2079.53,220.472
2082.58,220.472
2085.63,220.472
2088.68,220.472
2091.73,220.472
2094.78,220.472
2097.83,220.472
2100.88,220.472
2103.93,125.984
2106.98,125.984
2110.03,125.984
2113.08,125.984
2116.13,125.984
2119.18,125.984
2122.23,125.984
2125.28,314.961
2128.33,409.449
2131.38,125.984
2134.43,125.984
2137.48,125.984
2140.53,125.984
2143.58,125.984
2146.63,125.984
2149.68,125.984
2152.73,125.984
2155.78,125.984
2158.83,125.984
2161.88,125.984
2164.93,125.984
2167.98,125.984
2171.03,125.984
2174.08,125.984
2177.13,125.984
2180.18,125.984
2183.23,125.984
2186.28,125.984
2189.33,125.984
2192.38,125.984
2195.43,125.984
2198.48,125.984
2201.52,125.984
2204.57,125.984
2207.62,125.984
2210.67,125.984
2213.72,125.984
2216.77,125.984
2219.82,125.984
2222.87,125.984
2225.92,125.984
2228.97,220.472
2232.02,220.472
2235.07,125.984
2238.12,125.984
2241.17,125.984
2244.22,125.984
2247.27,125.984
2250.32,125.984
2253.37,125.984
2256.42,125.984
2259.47,125.984
2262.52,125.984
2265.57,125.984
2268.62,125.984
2271.67,125.984
2274.72,125.984
2277.77,125.984
2280.82,125.984
2283.87,125.984
2286.92,125.984
2289.97,125.984
