,GP550R
RamanShit,Intensity
255.636,472.441
258.696,0
261.755,0
264.815,157.48
267.874,314.961
270.934,629.921
273.994,1259.84
277.053,1574.8
280.113,2047.24
283.172,1417.32
286.232,1259.84
289.291,629.921
292.351,314.961
295.411,157.48
298.47,157.48
301.53,157.48
304.589,314.961
307.649,472.441
310.709,944.882
313.768,1732.28
316.828,2047.24
319.887,2519.69
322.947,1889.76
326.006,1732.28
329.066,1417.32
332.126,1417.32
335.185,1417.32
338.245,1417.32
341.304,1574.8
344.364,1574.8
347.424,1417.32
350.483,1417.32
353.543,1417.32
356.602,1417.32
359.662,1417.32
362.721,1574.8
365.781,1732.28
368.841,2362.2
371.9,2834.65
374.96,3149.61
378.019,2834.65
381.079,2362.2
384.138,1732.28
387.198,1574.8
390.258,1417.32
393.317,1417.32
396.377,1417.32
399.436,1574.8
402.496,2834.65
405.556,5196.85
408.615,13700.8
411.675,15118.1
414.734,6141.73
417.794,4566.93
420.853,2992.13
423.913,2834.65
426.973,2519.69
430.032,1574.8
433.092,629.921
436.151,314.961
439.211,157.48
442.271,157.48
445.33,157.48
448.39,157.48
451.449,314.961
454.509,629.921
457.568,787.402
460.628,787.402
463.688,944.882
466.747,1417.32
469.807,2519.69
472.866,3149.61
475.926,3779.53
478.986,3149.61
482.045,2677.17
485.105,1889.76
488.164,1259.84
491.224,787.402
494.283,629.921
497.343,629.921
500.403,629.921
503.462,629.921
506.522,629.921
509.581,629.921
512.641,629.921
515.7,787.402
518.76,787.402
521.82,787.402
524.879,787.402
527.939,787.402
530.998,787.402
534.058,787.402
537.118,787.402
540.177,629.921
543.237,314.961
546.296,314.961
549.356,157.48
552.415,157.48
555.475,157.48
558.535,157.48
561.594,157.48
564.654,314.961
567.713,314.961
570.773,314.961
573.833,472.441
576.892,472.441
579.952,472.441
583.011,472.441
586.071,472.441
589.13,472.441
592.19,472.441
595.25,787.402
598.309,1417.32
601.369,2519.69
604.428,3307.09
607.488,4094.49
610.548,4409.45
613.607,4566.93
616.667,4566.93
619.726,4724.41
622.786,4724.41
625.845,4724.41
628.905,4724.41
631.965,4724.41
635.024,4881.89
638.084,4881.89
641.143,5039.37
644.203,5826.77
647.262,5039.37
650.322,4409.45
653.382,2992.13
656.441,1732.28
659.501,1102.36
662.56,944.882
665.62,787.402
668.68,629.921
671.739,472.441
674.799,314.961
677.858,314.961
680.918,157.48
683.977,157.48
687.037,157.48
690.097,157.48
693.156,157.48
696.216,157.48
699.275,314.961
702.335,472.441
705.395,472.441
708.454,629.921
711.514,629.921
714.573,629.921
717.633,629.921
720.692,787.402
723.752,944.882
726.812,1102.36
729.871,1417.32
732.931,1889.76
735.99,2362.2
739.05,2362.2
742.11,2362.2
745.169,2204.72
748.229,1889.76
751.288,1259.84
754.348,944.882
757.407,629.921
760.467,472.441
763.527,314.961
766.586,157.48
769.646,157.48
772.705,157.48
775.765,157.48
778.824,157.48
781.884,157.48
784.944,157.48
788.003,157.48
791.063,157.48
794.122,157.48
797.182,157.48
800.242,157.48
803.301,157.48
806.361,157.48
809.42,157.48
812.48,157.48
815.539,157.48
818.599,157.48
821.659,157.48
824.718,157.48
827.778,157.48
830.837,157.48
833.897,157.48
836.957,157.48
840.016,157.48
843.076,157.48
846.135,157.48
849.195,157.48
852.254,157.48
855.314,157.48
858.374,157.48
861.433,314.961
864.493,314.961
867.552,157.48
870.612,157.48
873.671,157.48
876.731,157.48
879.791,157.48
882.85,157.48
885.91,157.48
888.969,157.48
892.029,157.48
895.089,157.48
898.148,157.48
901.208,157.48
904.267,157.48
907.327,157.48
910.386,157.48
913.446,157.48
916.506,157.48
919.565,157.48
922.625,157.48
925.684,157.48
928.744,157.48
931.804,157.48
934.863,157.48
937.923,157.48
940.982,157.48
944.042,157.48
947.101,157.48
950.161,157.48
953.221,157.48
956.28,157.48
959.34,157.48
962.399,157.48
965.459,157.48
968.519,157.48
971.578,157.48
974.638,157.48
977.697,157.48
980.757,157.48
983.816,157.48
986.876,157.48
989.936,314.961
992.995,472.441
996.055,787.402
999.114,1417.32
1002.17,1889.76
1005.23,2047.24
1008.29,2047.24
1011.35,2047.24
1014.41,2047.24
1017.47,2047.24
1020.53,1889.76
1023.59,1574.8
1026.65,1259.84
1029.71,944.882
1032.77,944.882
1035.83,944.882
1038.89,1259.84
1041.95,1732.28
1045.01,2834.65
1048.07,4566.93
1051.13,7716.54
1054.19,13228.3
1057.25,16692.9
1060.31,21889.8
1063.37,16692.9
1066.43,13858.3
1069.48,8346.46
1072.54,4566.93
1075.6,2834.65
1078.66,1889.76
1081.72,1417.32
1084.78,1417.32
1087.84,1574.8
1090.9,1889.76
1093.96,2677.17
1097.02,3622.05
1100.08,5354.33
1103.14,5511.81
1106.2,3779.53
1109.26,3149.61
1112.32,1732.28
1115.38,1102.36
1118.44,944.882
1121.5,944.882
1124.56,1102.36
1127.62,1574.8
1130.68,2834.65
1133.74,3779.53
1136.8,4566.93
1139.86,3779.53
1142.91,3622.05
1145.97,3149.61
1149.03,2362.2
1152.09,2047.24
1155.15,2047.24
1158.21,2047.24
1161.27,2047.24
1164.33,2204.72
1167.39,2204.72
1170.45,2362.2
1173.51,2362.2
1176.57,2204.72
1179.63,2047.24
1182.69,1889.76
1185.75,1417.32
1188.81,944.882
1191.87,629.921
1194.93,472.441
1197.99,157.48
1201.05,157.48
1204.11,157.48
1207.17,314.961
1210.23,472.441
1213.29,787.402
1216.34,944.882
1219.4,944.882
1222.46,944.882
1225.52,1102.36
1228.58,944.882
1231.64,944.882
1234.7,629.921
1237.76,629.921
1240.82,472.441
1243.88,314.961
1246.94,314.961
1250,157.48
1253.06,157.48
1256.12,157.48
1259.18,157.48
1262.24,157.48
1265.3,157.48
1268.36,314.961
1271.42,472.441
1274.48,472.441
1277.54,629.921
1280.6,629.921
1283.66,787.402
1286.71,787.402
1289.77,629.921
1292.83,629.921
1295.89,472.441
1298.95,314.961
1302.01,157.48
1305.07,157.48
1308.13,157.48
1311.19,157.48
1314.25,157.48
1317.31,157.48
1320.37,314.961
1323.43,314.961
1326.49,472.441
1329.55,629.921
1332.61,787.402
1335.67,944.882
1338.73,1259.84
1341.79,1574.8
1344.85,1732.28
1347.91,1732.28
1350.97,1732.28
1354.03,1574.8
1357.09,1574.8
1360.14,1259.84
1363.2,1102.36
1366.26,944.882
1369.32,787.402
1372.38,629.921
1375.44,472.441
1378.5,472.441
1381.56,472.441
1384.62,314.961
1387.68,314.961
1390.74,314.961
1393.8,314.961
1396.86,314.961
1399.92,472.441
1402.98,472.441
1406.04,472.441
1409.1,629.921
1412.16,629.921
1415.22,629.921
1418.28,629.921
1421.34,472.441
1424.4,472.441
1427.46,314.961
1430.52,157.48
1433.57,157.48
1436.63,157.48
1439.69,157.48
1442.75,157.48
1445.81,157.48
1448.87,157.48
1451.93,157.48
1454.99,157.48
1458.05,157.48
1461.11,157.48
1464.17,157.48
1467.23,157.48
1470.29,157.48
1473.35,157.48
1476.41,314.961
1479.47,314.961
1482.53,314.961
1485.59,314.961
1488.65,314.961
1491.71,314.961
1494.77,314.961
1497.83,314.961
1500.89,314.961
1503.95,314.961
1507,314.961
1510.06,314.961
1513.12,314.961
1516.18,314.961
1519.24,314.961
1522.3,314.961
1525.36,314.961
1528.42,314.961
1531.48,314.961
1534.54,314.961
1537.6,314.961
1540.66,314.961
1543.72,314.961
1546.78,314.961
1549.84,314.961
1552.9,472.441
1555.96,629.921
1559.02,629.921
1562.08,629.921
1565.14,629.921
1568.2,787.402
1571.26,787.402
1574.32,944.882
1577.38,787.402
1580.43,787.402
1583.49,787.402
1586.55,787.402
1589.61,787.402
1592.67,787.402
1595.73,787.402
1598.79,787.402
1601.85,787.402
1604.91,787.402
1607.97,787.402
1611.03,944.882
1614.09,944.882
1617.15,787.402
1620.21,629.921
1623.27,472.441
1626.33,314.961
1629.39,314.961
1632.45,314.961
1635.51,314.961
1638.57,157.48
1641.63,157.48
1644.69,157.48
1647.75,157.48
1650.81,157.48
1653.86,157.48
1656.92,157.48
1659.98,157.48
1663.04,157.48
1666.1,157.48
1669.16,157.48
1672.22,157.48
1675.28,157.48
1678.34,157.48
1681.4,157.48
1684.46,157.48
1687.52,157.48
1690.58,157.48
1693.64,157.48
1696.7,157.48
1699.76,314.961
1702.82,314.961
1705.88,314.961
1708.94,314.961
1712,314.961
1715.06,314.961
1718.12,314.961
1721.18,314.961
1724.24,314.961
1727.29,314.961
1730.35,314.961
1733.41,314.961
1736.47,314.961
1739.53,314.961
1742.59,157.48
1745.65,157.48
1748.71,157.48
1751.77,157.48
1754.83,157.48
1757.89,157.48
1760.95,157.48
1764.01,314.961
1767.07,314.961
1770.13,314.961
1773.19,314.961
1776.25,314.961
1779.31,314.961
1782.37,314.961
1785.43,314.961
1788.49,314.961
1791.55,314.961
1794.61,314.961
1797.67,314.961
1800.72,314.961
1803.78,314.961
1806.84,314.961
1809.9,314.961
1812.96,314.961
1816.02,314.961
1819.08,314.961
1822.14,314.961
1825.2,314.961
1828.26,314.961
1831.32,314.961
1834.38,314.961
1837.44,314.961
1840.5,314.961
1843.56,314.961
1846.62,314.961
1849.68,314.961
1852.74,314.961
1855.8,314.961
1858.86,314.961
1861.92,314.961
1864.98,314.961
1868.04,314.961
1871.1,314.961
1874.15,314.961
1877.21,314.961
1880.27,314.961
1883.33,314.961
1886.39,314.961
1889.45,314.961
1892.51,314.961
1895.57,314.961
1898.63,314.961
1901.69,314.961
1904.75,314.961
1907.81,314.961
1910.87,314.961
1913.93,314.961
1916.99,314.961
1920.05,314.961
1923.11,314.961
1926.17,314.961
1929.23,314.961
1932.29,314.961
1935.35,314.961
1938.41,314.961
1941.47,314.961
1944.52,314.961
1947.58,314.961
1950.64,314.961
1953.7,314.961
1956.76,472.441
1959.82,472.441
1962.88,472.441
1965.94,472.441
1969,472.441
1972.06,472.441
1975.12,472.441
1978.18,472.441
1981.24,472.441
1984.3,472.441
1987.36,472.441
1990.42,472.441
1993.48,472.441
1996.54,472.441
1999.6,314.961
2002.66,314.961
2005.72,314.961
2008.78,314.961
2011.84,314.961
2014.9,314.961
2017.95,314.961
2021.01,314.961
2024.07,314.961
2027.13,314.961
2030.19,314.961
2033.25,472.441
2036.31,314.961
2039.37,314.961
2042.43,314.961
2045.49,314.961
2048.55,314.961
2051.61,314.961
2054.67,472.441
2057.73,472.441
2060.79,314.961
2063.85,314.961
2066.91,314.961
2069.97,314.961
2073.03,314.961
2076.09,314.961
2079.15,314.961
2082.21,314.961
2085.27,314.961
2088.33,314.961
2091.38,314.961
2094.44,314.961
2097.5,314.961
2100.56,314.961
2103.62,314.961
2106.68,314.961
2109.74,314.961
2112.8,314.961
2115.86,314.961
2118.92,314.961
2121.98,314.961
2125.04,314.961
2128.1,314.961
2131.16,314.961
2134.22,314.961
2137.28,314.961
2140.34,314.961
2143.4,314.961
2146.46,314.961
2149.52,314.961
2152.58,314.961
2155.64,314.961
2158.7,314.961
2161.76,157.48
2164.81,157.48
2167.87,157.48
2170.93,157.48
2173.99,314.961
2177.05,314.961
2180.11,314.961
2183.17,314.961
2186.23,314.961
2189.29,314.961
2192.35,314.961
2195.41,314.961
2198.47,314.961
2201.53,314.961
2204.59,314.961
2207.65,314.961
2210.71,472.441
2213.77,472.441
2216.83,472.441
2219.89,629.921
2222.95,629.921
2226.01,629.921
2229.07,629.921
2232.13,472.441
2235.19,472.441
2238.24,314.961
2241.3,314.961
2244.36,314.961
2247.42,314.961
2250.48,314.961
2253.54,314.961
2256.6,472.441
2259.66,314.961
2262.72,314.961
2265.78,314.961
2268.84,314.961
2271.9,314.961
2274.96,314.961
2278.02,472.441
2281.08,472.441
2284.14,472.441
2287.2,472.441
2290.26,472.441
