,GP550R
RamanShit,Intensity
255.636,156.863
258.696,313.725
261.755,627.451
264.815,941.176
267.874,1254.9
270.934,1490.2
273.994,1333.33
277.053,1176.47
280.113,862.745
283.172,392.157
286.232,235.294
289.291,235.294
292.351,235.294
295.411,313.725
298.47,392.157
301.53,627.451
304.589,1019.61
307.649,1725.49
310.709,2431.37
313.768,3215.69
316.828,3294.12
319.887,2588.24
322.947,2274.51
326.006,1490.2
329.066,862.745
332.126,470.588
335.185,235.294
338.245,235.294
341.304,235.294
344.364,470.588
347.424,862.745
350.483,1098.04
353.543,1568.63
356.602,1254.9
359.662,1333.33
362.721,1333.33
365.781,1411.76
368.841,1725.49
371.9,1960.78
374.96,2431.37
378.019,1882.35
381.079,1490.2
384.138,784.314
387.198,470.588
390.258,392.157
393.317,392.157
396.377,470.588
399.436,705.882
402.496,1333.33
405.556,1882.35
408.615,2196.08
411.675,2509.8
414.734,2196.08
417.794,1725.49
420.853,941.176
423.913,470.588
426.973,235.294
430.032,156.863
433.092,78.4314
436.151,78.4314
439.211,78.4314
442.271,78.4314
445.33,78.4314
448.39,78.4314
451.449,78.4314
454.509,156.863
457.568,235.294
460.628,313.725
463.688,313.725
466.747,235.294
469.807,235.294
472.866,235.294
475.926,235.294
478.986,235.294
482.045,235.294
485.105,235.294
488.164,235.294
491.224,313.725
494.283,470.588
497.343,627.451
500.403,705.882
503.462,705.882
506.522,705.882
509.581,705.882
512.641,705.882
515.7,705.882
518.76,705.882
521.82,784.314
524.879,784.314
527.939,705.882
530.998,705.882
534.058,627.451
537.118,627.451
540.177,392.157
543.237,156.863
546.296,156.863
549.356,156.863
552.415,156.863
555.475,156.863
558.535,156.863
561.594,156.863
564.654,156.863
567.713,78.4314
570.773,78.4314
573.833,78.4314
576.892,78.4314
579.952,78.4314
583.011,78.4314
586.071,78.4314
589.13,78.4314
592.19,78.4314
595.25,78.4314
598.309,156.863
601.369,156.863
604.428,156.863
607.488,235.294
610.548,235.294
613.607,235.294
616.667,313.725
619.726,470.588
622.786,549.02
625.845,627.451
628.905,862.745
631.965,1176.47
635.024,1725.49
638.084,2745.1
641.143,4941.18
644.203,8705.88
647.262,10823.5
650.322,13568.6
653.382,10823.5
656.441,8627.45
659.501,4941.18
662.56,2666.67
665.62,1647.06
668.68,1098.04
671.739,862.745
674.799,784.314
677.858,862.745
680.918,941.176
683.977,941.176
687.037,941.176
690.097,862.745
693.156,784.314
696.216,470.588
699.275,313.725
702.335,313.725
705.395,235.294
708.454,235.294
711.514,156.863
714.573,156.863
717.633,156.863
720.692,78.4314
723.752,78.4314
726.812,78.4314
729.871,78.4314
732.931,78.4314
735.99,156.863
739.05,156.863
742.11,156.863
745.169,156.863
748.229,156.863
751.288,78.4314
754.348,78.4314
757.407,78.4314
760.467,78.4314
763.527,78.4314
766.586,78.4314
769.646,78.4314
772.705,78.4314
775.765,78.4314
778.824,78.4314
781.884,78.4314
784.944,78.4314
788.003,78.4314
791.063,78.4314
794.122,78.4314
797.182,78.4314
800.242,156.863
803.301,156.863
806.361,156.863
809.42,235.294
812.48,235.294
815.539,235.294
818.599,235.294
821.659,235.294
824.718,235.294
827.778,235.294
830.837,235.294
833.897,313.725
836.957,235.294
840.016,235.294
843.076,235.294
846.135,156.863
849.195,156.863
852.254,156.863
855.314,156.863
858.374,156.863
861.433,156.863
864.493,156.863
867.552,156.863
870.612,156.863
873.671,156.863
876.731,78.4314
879.791,78.4314
882.85,78.4314
885.91,78.4314
888.969,78.4314
892.029,156.863
895.089,235.294
898.148,313.725
901.208,392.157
904.267,470.588
907.327,549.02
910.386,705.882
913.446,470.588
916.506,392.157
919.565,235.294
922.625,156.863
925.684,156.863
928.744,156.863
931.804,156.863
934.863,156.863
937.923,156.863
940.982,156.863
944.042,235.294
947.101,313.725
950.161,392.157
953.221,470.588
956.28,784.314
959.34,1176.47
962.399,1647.06
965.459,2431.37
968.519,3215.69
971.578,4078.43
974.638,4156.86
977.697,3529.41
980.757,3294.12
983.816,2745.1
986.876,2431.37
989.936,2431.37
992.995,2509.8
996.055,2509.8
999.114,2588.24
1002.17,2588.24
1005.23,3058.82
1008.29,2901.96
1011.35,2588.24
1014.41,2980.39
1017.47,3294.12
1020.53,4156.86
1023.59,4784.31
1026.65,5725.49
1029.71,4627.45
1032.77,3843.14
1035.83,2352.94
1038.89,1490.2
1041.95,941.176
1045.01,627.451
1048.07,392.157
1051.13,313.725
1054.19,156.863
1057.25,156.863
1060.31,156.863
1063.37,156.863
1066.43,156.863
1069.48,156.863
1072.54,156.863
1075.6,156.863
1078.66,156.863
1081.72,156.863
1084.78,235.294
1087.84,235.294
1090.9,156.863
1093.96,156.863
1097.02,156.863
1100.08,156.863
1103.14,78.4314
1106.2,78.4314
1109.26,78.4314
1112.32,78.4314
1115.38,156.863
1118.44,156.863
1121.5,156.863
1124.56,156.863
1127.62,156.863
1130.68,156.863
1133.74,156.863
1136.8,156.863
1139.86,156.863
1142.91,156.863
1145.97,235.294
1149.03,235.294
1152.09,156.863
1155.15,156.863
1158.21,156.863
1161.27,156.863
1164.33,156.863
1167.39,235.294
1170.45,235.294
1173.51,235.294
1176.57,235.294
1179.63,235.294
1182.69,235.294
1185.75,313.725
1188.81,313.725
1191.87,235.294
1194.93,235.294
1197.99,235.294
1201.05,235.294
1204.11,235.294
1207.17,235.294
1210.23,313.725
1213.29,313.725
1216.34,313.725
1219.4,235.294
1222.46,235.294
1225.52,235.294
1228.58,235.294
1231.64,235.294
1234.7,235.294
1237.76,235.294
1240.82,235.294
1243.88,235.294
1246.94,235.294
1250,313.725
1253.06,313.725
1256.12,313.725
1259.18,235.294
1262.24,235.294
1265.3,235.294
1268.36,235.294
1271.42,235.294
1274.48,235.294
1277.54,235.294
1280.6,235.294
1283.66,235.294
1286.71,235.294
1289.77,235.294
1292.83,235.294
1295.89,235.294
1298.95,235.294
1302.01,235.294
1305.07,235.294
1308.13,235.294
1311.19,235.294
1314.25,235.294
1317.31,235.294
1320.37,235.294
1323.43,235.294
1326.49,235.294
1329.55,235.294
1332.61,235.294
1335.67,235.294
1338.73,235.294
1341.79,313.725
1344.85,313.725
1347.91,392.157
1350.97,392.157
1354.03,313.725
1357.09,313.725
1360.14,313.725
1363.2,313.725
1366.26,313.725
1369.32,313.725
1372.38,392.157
1375.44,392.157
1378.5,392.157
1381.56,392.157
1384.62,392.157
1387.68,392.157
1390.74,392.157
1393.8,392.157
1396.86,392.157
1399.92,392.157
1402.98,392.157
1406.04,313.725
1409.1,313.725
1412.16,313.725
1415.22,313.725
1418.28,313.725
1421.34,313.725
1424.4,313.725
1427.46,313.725
1430.52,313.725
1433.57,313.725
1436.63,313.725
1439.69,313.725
1442.75,313.725
1445.81,313.725
1448.87,313.725
1451.93,313.725
1454.99,313.725
1458.05,313.725
1461.11,235.294
1464.17,235.294
1467.23,235.294
1470.29,235.294
1473.35,235.294
1476.41,235.294
1479.47,235.294
1482.53,235.294
1485.59,156.863
1488.65,156.863
1491.71,156.863
1494.77,156.863
1497.83,156.863
1500.89,156.863
1503.95,156.863
1507,156.863
1510.06,156.863
1513.12,156.863
1516.18,235.294
1519.24,235.294
1522.3,235.294
1525.36,235.294
1528.42,235.294
1531.48,235.294
1534.54,313.725
1537.6,313.725
1540.66,313.725
1543.72,392.157
1546.78,392.157
1549.84,392.157
1552.9,313.725
1555.96,313.725
1559.02,313.725
1562.08,313.725
1565.14,313.725
1568.2,235.294
1571.26,235.294
1574.32,235.294
1577.38,235.294
1580.43,235.294
1583.49,235.294
1586.55,235.294
1589.61,235.294
1592.67,235.294
1595.73,235.294
1598.79,313.725
1601.85,313.725
1604.91,313.725
1607.97,313.725
1611.03,313.725
1614.09,313.725
1617.15,313.725
1620.21,313.725
1623.27,313.725
1626.33,313.725
1629.39,313.725
1632.45,313.725
1635.51,235.294
1638.57,235.294
1641.63,156.863
1644.69,156.863
1647.75,156.863
1650.81,156.863
1653.86,156.863
1656.92,235.294
1659.98,235.294
1663.04,235.294
1666.1,235.294
1669.16,156.863
1672.22,156.863
1675.28,156.863
1678.34,156.863
1681.4,156.863
1684.46,235.294
1687.52,235.294
1690.58,235.294
1693.64,235.294
1696.7,235.294
1699.76,235.294
1702.82,235.294
1705.88,235.294
1708.94,235.294
1712,313.725
1715.06,313.725
1718.12,235.294
1721.18,235.294
1724.24,235.294
1727.29,235.294
1730.35,235.294
1733.41,235.294
1736.47,235.294
1739.53,156.863
1742.59,156.863
1745.65,156.863
1748.71,156.863
1751.77,156.863
1754.83,156.863
1757.89,156.863
1760.95,156.863
1764.01,156.863
1767.07,235.294
1770.13,235.294
1773.19,235.294
1776.25,235.294
1779.31,235.294
1782.37,235.294
1785.43,235.294
1788.49,235.294
1791.55,235.294
1794.61,235.294
1797.67,235.294
1800.72,235.294
1803.78,235.294
1806.84,235.294
1809.9,235.294
1812.96,313.725
1816.02,313.725
1819.08,313.725
1822.14,313.725
1825.2,235.294
1828.26,235.294
1831.32,156.863
1834.38,156.863
1837.44,156.863
1840.5,156.863
1843.56,235.294
1846.62,235.294
1849.68,235.294
1852.74,156.863
1855.8,156.863
1858.86,156.863
1861.92,156.863
1864.98,156.863
1868.04,235.294
1871.1,235.294
1874.15,235.294
1877.21,235.294
1880.27,235.294
1883.33,235.294
1886.39,235.294
1889.45,156.863
1892.51,156.863
1895.57,156.863
1898.63,156.863
1901.69,156.863
1904.75,156.863
1907.81,156.863
1910.87,156.863
1913.93,156.863
1916.99,156.863
1920.05,156.863
1923.11,156.863
1926.17,156.863
1929.23,156.863
1932.29,156.863
1935.35,156.863
1938.41,156.863
1941.47,156.863
1944.52,156.863
1947.58,156.863
1950.64,156.863
1953.7,156.863
1956.76,156.863
1959.82,156.863
1962.88,156.863
1965.94,156.863
1969,156.863
1972.06,156.863
1975.12,156.863
1978.18,156.863
1981.24,156.863
1984.3,156.863
1987.36,156.863
1990.42,156.863
1993.48,78.4314
1996.54,78.4314
1999.6,78.4314
2002.66,78.4314
2005.72,78.4314
2008.78,78.4314
2011.84,78.4314
2014.9,78.4314
2017.95,78.4314
2021.01,78.4314
2024.07,78.4314
2027.13,156.863
2030.19,156.863
2033.25,156.863
2036.31,235.294
2039.37,156.863
2042.43,156.863
2045.49,156.863
2048.55,156.863
2051.61,156.863
2054.67,156.863
2057.73,235.294
2060.79,235.294
2063.85,156.863
2066.91,156.863
2069.97,156.863
2073.03,156.863
2076.09,156.863
2079.15,156.863
2082.21,235.294
2085.27,235.294
2088.33,235.294
2091.38,235.294
2094.44,156.863
2097.5,156.863
2100.56,156.863
2103.62,156.863
2106.68,156.863
2109.74,156.863
2112.8,156.863
2115.86,156.863
2118.92,235.294
2121.98,235.294
2125.04,235.294
2128.1,235.294
2131.16,156.863
2134.22,156.863
2137.28,156.863
2140.34,156.863
2143.4,235.294
2146.46,235.294
2149.52,235.294
2152.58,156.863
2155.64,156.863
2158.7,156.863
2161.76,78.4314
2164.81,78.4314
2167.87,78.4314
2170.93,78.4314
2173.99,78.4314
2177.05,78.4314
2180.11,78.4314
2183.17,156.863
2186.23,156.863
2189.29,156.863
2192.35,156.863
2195.41,156.863
2198.47,156.863
2201.53,156.863
2204.59,156.863
2207.65,156.863
2210.71,156.863
2213.77,156.863
2216.83,156.863
2219.89,235.294
2222.95,235.294
2226.01,156.863
2229.07,156.863
2232.13,156.863
2235.19,156.863
2238.24,156.863
2241.3,156.863
2244.36,156.863
2247.42,156.863
2250.48,156.863
2253.54,156.863
2256.6,156.863
2259.66,156.863
2262.72,156.863
2265.78,156.863
2268.84,156.863
2271.9,78.4314
2274.96,78.4314
2278.02,78.4314
2281.08,78.4314
2284.14,78.4314
2287.2,78.4314
2290.26,78.4314
