,GP550R
RamanShit,Intensity
258.696,157.48
261.755,157.48
264.815,157.48
267.874,157.48
270.934,314.961
273.994,314.961
277.053,314.961
280.113,472.441
283.172,472.441
286.232,472.441
289.291,629.921
292.351,629.921
295.411,629.921
298.47,787.402
301.53,944.882
304.589,1102.36
307.649,1417.32
310.709,1732.28
313.768,2047.24
316.828,2204.72
319.887,2519.69
322.947,2992.13
326.006,3307.09
329.066,3622.05
332.126,4409.45
335.185,5826.77
338.245,6771.65
341.304,8031.5
344.364,6614.17
347.424,5511.81
350.483,3464.57
353.543,2677.17
356.602,2677.17
359.662,2834.65
362.721,2992.13
365.781,3149.61
368.841,3464.57
371.9,2992.13
374.96,2519.69
378.019,1574.8
381.079,944.882
384.138,787.402
387.198,472.441
390.258,314.961
393.317,157.48
396.377,157.48
399.436,157.48
402.496,157.48
405.556,157.48
408.615,157.48
411.675,157.48
414.734,157.48
417.794,157.48
420.853,157.48
423.913,157.48
426.973,157.48
430.032,157.48
433.092,157.48
436.151,157.48
439.211,157.48
442.271,157.48
445.33,157.48
448.39,157.48
451.449,157.48
454.509,157.48
457.568,157.48
460.628,157.48
463.688,314.961
466.747,472.441
469.807,629.921
472.866,944.882
475.926,1102.36
478.986,1259.84
482.045,1417.32
485.105,1417.32
488.164,1574.8
491.224,1732.28
494.283,1732.28
497.343,2047.24
500.403,1574.8
503.462,1417.32
506.522,944.882
509.581,629.921
512.641,472.441
515.7,472.441
518.76,472.441
521.82,472.441
524.879,472.441
527.939,472.441
530.998,472.441
534.058,629.921
537.118,787.402
540.177,944.882
543.237,1102.36
546.296,1574.8
549.356,2047.24
552.415,2519.69
555.475,2047.24
558.535,1889.76
561.594,1574.8
564.654,1102.36
567.713,944.882
570.773,944.882
573.833,944.882
576.892,944.882
579.952,944.882
583.011,787.402
586.071,787.402
589.13,787.402
592.19,787.402
595.25,787.402
598.309,629.921
601.369,629.921
604.428,629.921
607.488,629.921
610.548,629.921
613.607,629.921
616.667,629.921
619.726,787.402
622.786,944.882
625.845,944.882
628.905,1102.36
631.965,1102.36
635.024,944.882
638.084,944.882
641.143,787.402
644.203,629.921
647.262,472.441
650.322,472.441
653.382,472.441
656.441,314.961
659.501,314.961
662.56,314.961
665.62,314.961
668.68,314.961
671.739,314.961
674.799,314.961
677.858,314.961
680.918,157.48
683.977,157.48
687.037,157.48
690.097,157.48
693.156,157.48
696.216,157.48
699.275,157.48
702.335,157.48
705.395,157.48
708.454,157.48
711.514,157.48
714.573,157.48
717.633,157.48
720.692,157.48
723.752,157.48
726.812,157.48
729.871,157.48
732.931,157.48
735.99,157.48
739.05,157.48
742.11,157.48
745.169,157.48
748.229,157.48
751.288,157.48
754.348,157.48
757.407,157.48
760.467,157.48
763.527,157.48
766.586,157.48
769.646,157.48
772.705,157.48
775.765,157.48
778.824,157.48
781.884,157.48
784.944,157.48
788.003,157.48
791.063,157.48
794.122,157.48
797.182,157.48
800.242,157.48
803.301,157.48
806.361,157.48
809.42,157.48
812.48,157.48
815.539,157.48
818.599,157.48
821.659,157.48
824.718,157.48
827.778,157.48
830.837,157.48
833.897,314.961
836.957,314.961
840.016,314.961
843.076,314.961
846.135,314.961
849.195,472.441
852.254,629.921
855.314,787.402
858.374,1102.36
861.433,1259.84
864.493,1259.84
867.552,1102.36
870.612,1102.36
873.671,944.882
876.731,944.882
879.791,944.882
882.85,1102.36
885.91,1259.84
888.969,1732.28
892.029,2204.72
895.089,2992.13
898.148,3937.01
901.208,4881.89
904.267,6614.17
907.327,9921.26
910.386,15118.1
913.446,18425.2
916.506,22362.2
919.565,18425.2
922.625,15905.5
925.684,10866.1
928.744,6771.65
931.804,4409.45
934.863,2992.13
937.923,2047.24
940.982,1417.32
944.042,944.882
947.101,787.402
950.161,472.441
953.221,314.961
956.28,314.961
959.34,157.48
962.399,157.48
965.459,157.48
968.519,157.48
971.578,157.48
974.638,157.48
977.697,157.48
980.757,157.48
983.816,157.48
986.876,157.48
989.936,157.48
992.995,157.48
996.055,157.48
999.114,157.48
1002.17,157.48
1005.23,157.48
1008.29,157.48
1011.35,157.48
1014.41,157.48
1017.47,157.48
1020.53,314.961
1023.59,314.961
1026.65,472.441
1029.71,629.921
1032.77,944.882
1035.83,1102.36
1038.89,1259.84
1041.95,1259.84
1045.01,1259.84
1048.07,1102.36
1051.13,944.882
1054.19,629.921
1057.25,472.441
1060.31,314.961
1063.37,314.961
1066.43,157.48
1069.48,157.48
1072.54,157.48
1075.6,157.48
1078.66,157.48
1081.72,157.48
1084.78,157.48
1087.84,157.48
1090.9,157.48
1093.96,157.48
1097.02,314.961
1100.08,314.961
1103.14,314.961
1106.2,314.961
1109.26,314.961
1112.32,314.961
1115.38,314.961
1118.44,314.961
1121.5,314.961
1124.56,314.961
1127.62,472.441
1130.68,472.441
1133.74,629.921
1136.8,787.402
1139.86,944.882
1142.91,1102.36
1145.97,1259.84
1149.03,1417.32
1152.09,1574.8
1155.15,1732.28
1158.21,1889.76
1161.27,2047.24
1164.33,2204.72
1167.39,2362.2
1170.45,2362.2
1173.51,2204.72
1176.57,1889.76
1179.63,1574.8
1182.69,1102.36
1185.75,787.402
1188.81,787.402
1191.87,629.921
1194.93,472.441
1197.99,472.441
1201.05,472.441
1204.11,472.441
1207.17,629.921
1210.23,787.402
1213.29,944.882
1216.34,944.882
1219.4,1102.36
1222.46,1102.36
1225.52,1102.36
1228.58,1102.36
1231.64,944.882
1234.7,944.882
1237.76,787.402
1240.82,629.921
1243.88,629.921
1246.94,472.441
1250,472.441
1253.06,314.961
1256.12,314.961
1259.18,314.961
1262.24,314.961
1265.3,314.961
1268.36,472.441
1271.42,629.921
1274.48,787.402
1277.54,787.402
1280.6,787.402
1283.66,944.882
1286.71,787.402
1289.77,787.402
1292.83,472.441
1295.89,314.961
1298.95,157.48
1302.01,157.48
1305.07,157.48
1308.13,157.48
1311.19,157.48
1314.25,157.48
1317.31,157.48
1320.37,157.48
1323.43,314.961
1326.49,472.441
1329.55,629.921
1332.61,944.882
1335.67,1259.84
1338.73,1417.32
1341.79,1574.8
1344.85,1732.28
1347.91,1732.28
1350.97,1574.8
1354.03,1417.32
1357.09,1259.84
1360.14,1102.36
1363.2,787.402
1366.26,787.402
1369.32,472.441
1372.38,472.441
1375.44,472.441
1378.5,314.961
1381.56,314.961
1384.62,314.961
1387.68,314.961
1390.74,314.961
1393.8,314.961
1396.86,472.441
1399.92,472.441
1402.98,472.441
1406.04,629.921
1409.1,629.921
1412.16,629.921
1415.22,629.921
1418.28,629.921
1421.34,472.441
1424.4,472.441
1427.46,314.961
1430.52,314.961
1433.57,314.961
1436.63,314.961
1439.69,314.961
1442.75,314.961
1445.81,314.961
1448.87,314.961
1451.93,314.961
1454.99,314.961
1458.05,314.961
1461.11,314.961
1464.17,314.961
1467.23,472.441
1470.29,472.441
1473.35,472.441
1476.41,472.441
1479.47,472.441
1482.53,472.441
1485.59,629.921
1488.65,629.921
1491.71,472.441
1494.77,472.441
1497.83,472.441
1500.89,472.441
1503.95,472.441
1507,472.441
1510.06,472.441
1513.12,472.441
1516.18,472.441
1519.24,472.441
1522.3,314.961
1525.36,314.961
1528.42,314.961
1531.48,314.961
1534.54,314.961
1537.6,314.961
1540.66,314.961
1543.72,314.961
1546.78,314.961
1549.84,472.441
1552.9,472.441
1555.96,472.441
1559.02,629.921
1562.08,629.921
1565.14,629.921
1568.2,629.921
1571.26,787.402
1574.32,787.402
1577.38,629.921
1580.43,629.921
1583.49,629.921
1586.55,472.441
1589.61,472.441
1592.67,472.441
1595.73,629.921
1598.79,629.921
1601.85,629.921
1604.91,629.921
1607.97,787.402
1611.03,787.402
1614.09,629.921
1617.15,472.441
1620.21,314.961
1623.27,314.961
1626.33,157.48
1629.39,157.48
1632.45,157.48
1635.51,157.48
1638.57,157.48
1641.63,157.48
1644.69,157.48
1647.75,157.48
1650.81,157.48
1653.86,157.48
1656.92,157.48
1659.98,157.48
1663.04,157.48
1666.1,157.48
1669.16,157.48
1672.22,157.48
1675.28,314.961
1678.34,314.961
1681.4,314.961
1684.46,314.961
1687.52,314.961
1690.58,314.961
1693.64,314.961
1696.7,314.961
1699.76,314.961
1702.82,472.441
1705.88,472.441
1708.94,472.441
1712,472.441
1715.06,472.441
1718.12,472.441
1721.18,472.441
1724.24,472.441
1727.29,472.441
1730.35,472.441
1733.41,472.441
1736.47,472.441
1739.53,472.441
1742.59,472.441
1745.65,472.441
1748.71,472.441
1751.77,472.441
1754.83,472.441
1757.89,472.441
1760.95,472.441
1764.01,472.441
1767.07,472.441
1770.13,472.441
1773.19,472.441
1776.25,472.441
1779.31,472.441
1782.37,472.441
1785.43,472.441
1788.49,472.441
1791.55,314.961
1794.61,314.961
1797.67,314.961
1800.72,314.961
1803.78,314.961
1806.84,314.961
1809.9,472.441
1812.96,314.961
1816.02,314.961
1819.08,314.961
1822.14,314.961
1825.2,314.961
1828.26,314.961
1831.32,314.961
1834.38,314.961
1837.44,314.961
1840.5,314.961
1843.56,314.961
1846.62,314.961
1849.68,157.48
1852.74,157.48
1855.8,157.48
1858.86,157.48
1861.92,157.48
1864.98,157.48
1868.04,157.48
1871.1,157.48
1874.15,157.48
1877.21,157.48
1880.27,157.48
1883.33,157.48
1886.39,157.48
1889.45,157.48
1892.51,157.48
1895.57,157.48
1898.63,157.48
1901.69,157.48
1904.75,157.48
1907.81,157.48
1910.87,157.48
1913.93,157.48
1916.99,157.48
1920.05,157.48
1923.11,157.48
1926.17,157.48
1929.23,157.48
1932.29,157.48
1935.35,157.48
1938.41,157.48
1941.47,157.48
1944.52,157.48
1947.58,157.48
1950.64,157.48
1953.7,314.961
1956.76,314.961
1959.82,314.961
1962.88,314.961
1965.94,314.961
1969,314.961
1972.06,314.961
1975.12,314.961
1978.18,314.961
1981.24,314.961
1984.3,314.961
1987.36,314.961
1990.42,314.961
1993.48,314.961
1996.54,314.961
1999.6,314.961
2002.66,314.961
2005.72,314.961
2008.78,314.961
2011.84,314.961
2014.9,314.961
2017.95,314.961
2021.01,314.961
2024.07,472.441
2027.13,472.441
2030.19,472.441
2033.25,472.441
2036.31,472.441
2039.37,472.441
2042.43,472.441
2045.49,472.441
2048.55,472.441
2051.61,472.441
2054.67,472.441
2057.73,472.441
2060.79,472.441
2063.85,472.441
2066.91,472.441
2069.97,314.961
2073.03,314.961
2076.09,314.961
2079.15,314.961
2082.21,314.961
2085.27,314.961
2088.33,314.961
2091.38,314.961
2094.44,314.961
2097.5,314.961
2100.56,314.961
2103.62,314.961
2106.68,314.961
2109.74,314.961
2112.8,314.961
2115.86,314.961
2118.92,314.961
2121.98,314.961
2125.04,314.961
2128.1,314.961
2131.16,314.961
2134.22,314.961
2137.28,314.961
2140.34,314.961
2143.4,314.961
2146.46,157.48
2149.52,157.48
2152.58,157.48
2155.64,157.48
2158.7,157.48
2161.76,157.48
2164.81,157.48
2167.87,157.48
2170.93,157.48
2173.99,157.48
2177.05,157.48
2180.11,157.48
2183.17,157.48
2186.23,157.48
2189.29,157.48
2192.35,157.48
2195.41,157.48
2198.47,157.48
2201.53,157.48
2204.59,157.48
2207.65,157.48
2210.71,157.48
2213.77,157.48
2216.83,314.961
2219.89,314.961
2222.95,314.961
2226.01,314.961
2229.07,314.961
2232.13,157.48
2235.19,157.48
2238.24,157.48
2241.3,157.48
2244.36,314.961
2247.42,314.961
2250.48,314.961
2253.54,314.961
2256.6,314.961
2259.66,157.48
2262.72,157.48
2265.78,157.48
2268.84,157.48
2271.9,314.961
2274.96,314.961
2278.02,314.961
2281.08,314.961
2284.14,314.961
2287.2,314.961
