,GP550R
RamanShit,Intensity
258.629,39.5257
261.694,134.387
264.758,134.387
267.823,134.387
270.887,229.249
273.952,229.249
277.016,229.249
280.081,229.249
283.145,229.249
286.21,229.249
289.274,229.249
292.339,134.387
295.403,134.387
298.468,134.387
301.532,134.387
304.597,39.5257
307.661,39.5257
310.726,39.5257
313.79,39.5257
316.855,39.5257
319.919,39.5257
322.984,-55.336
326.048,-55.336
329.113,-55.336
332.177,-55.336
335.242,-55.336
338.306,-55.336
341.371,-55.336
344.435,-55.336
347.5,-55.336
350.565,39.5257
353.629,39.5257
356.694,39.5257
359.758,39.5257
362.823,39.5257
365.887,39.5257
368.952,39.5257
372.016,39.5257
375.081,39.5257
378.145,39.5257
381.21,39.5257
384.274,39.5257
387.339,39.5257
390.403,39.5257
393.468,39.5257
396.532,39.5257
399.597,39.5257
402.661,39.5257
405.726,39.5257
408.79,39.5257
411.855,39.5257
414.919,39.5257
417.984,39.5257
421.048,39.5257
424.113,39.5257
427.177,-55.336
430.242,-55.336
433.306,-55.336
436.371,39.5257
439.435,39.5257
442.5,39.5257
445.565,134.387
448.629,229.249
451.694,229.249
454.758,229.249
457.823,229.249
460.887,229.249
463.952,229.249
467.016,229.249
470.081,229.249
473.145,134.387
476.21,134.387
479.274,134.387
482.339,134.387
485.403,134.387
488.468,134.387
491.532,134.387
494.597,229.249
497.661,229.249
500.726,229.249
503.79,229.249
506.855,229.249
509.919,229.249
512.984,229.249
516.048,229.249
519.113,229.249
522.177,229.249
525.242,229.249
528.306,324.111
531.371,324.111
534.435,229.249
537.5,229.249
540.565,229.249
543.629,134.387
546.694,134.387
549.758,134.387
552.823,39.5257
555.887,39.5257
558.952,39.5257
562.016,39.5257
565.081,39.5257
568.145,39.5257
571.21,39.5257
574.274,39.5257
577.339,-55.336
580.403,-55.336
583.468,-55.336
586.532,-55.336
589.597,-55.336
592.661,-55.336
595.726,-55.336
598.79,-55.336
601.855,-55.336
604.919,-55.336
607.984,-55.336
611.048,-55.336
614.113,-55.336
617.177,-55.336
620.242,-55.336
623.306,-55.336
626.371,39.5257
629.435,39.5257
632.5,39.5257
635.565,39.5257
638.629,39.5257
641.694,39.5257
644.758,39.5257
647.823,39.5257
650.887,39.5257
653.952,39.5257
657.016,39.5257
660.081,39.5257
663.145,39.5257
666.21,39.5257
669.274,39.5257
672.339,39.5257
675.403,39.5257
678.468,39.5257
681.532,39.5257
684.597,39.5257
687.661,39.5257
690.726,39.5257
693.79,39.5257
696.855,39.5257
699.919,39.5257
702.984,39.5257
706.048,39.5257
709.113,39.5257
712.177,39.5257
715.242,39.5257
718.306,39.5257
721.371,39.5257
724.435,-55.336
727.5,-55.336
730.565,-55.336
733.629,-55.336
736.694,-55.336
739.758,-55.336
742.823,-55.336
745.887,-55.336
748.952,-55.336
752.016,39.5257
755.081,39.5257
758.145,39.5257
761.21,39.5257
764.274,39.5257
767.339,39.5257
770.403,39.5257
773.468,39.5257
776.532,39.5257
779.597,-55.336
782.661,-55.336
785.726,-55.336
788.79,-55.336
791.855,-55.336
794.919,-55.336
797.984,-55.336
801.048,-55.336
804.113,-55.336
807.177,-55.336
810.242,-55.336
813.306,-55.336
816.371,-55.336
819.435,-55.336
822.5,-55.336
825.565,-55.336
828.629,-55.336
831.694,-55.336
834.758,-55.336
837.823,-55.336
840.887,-55.336
843.952,-55.336
847.016,-55.336
850.081,-55.336
853.145,-55.336
856.21,-55.336
859.274,-55.336
862.339,-55.336
865.403,-55.336
868.468,-55.336
871.532,-55.336
874.597,-55.336
877.661,-55.336
880.726,-55.336
883.79,-55.336
886.855,-55.336
889.919,-55.336
892.984,-55.336
896.048,-55.336
899.113,-55.336
902.177,-55.336
905.242,-55.336
908.306,-55.336
911.371,-55.336
914.435,-55.336
917.5,-55.336
920.565,-55.336
923.629,-55.336
926.694,-55.336
929.758,-55.336
932.823,-55.336
935.887,-55.336
938.952,-55.336
942.016,-55.336
945.081,-55.336
948.145,-55.336
951.21,-55.336
954.274,-55.336
957.339,-55.336
960.403,-55.336
963.468,-55.336
966.532,-55.336
969.597,-55.336
972.661,-55.336
975.726,39.5257
978.79,39.5257
981.855,134.387
984.919,134.387
987.984,229.249
991.048,134.387
994.113,134.387
997.177,39.5257
1000.24,-55.336
1003.31,-55.336
1006.37,-55.336
1009.44,-55.336
1012.5,-55.336
1015.56,-55.336
1018.63,-55.336
1021.69,-55.336
1024.76,-55.336
1027.82,-55.336
1030.89,-55.336
1033.95,-55.336
1037.02,-55.336
1040.08,-55.336
1043.15,-55.336
1046.21,-55.336
1049.27,-55.336
1052.34,-55.336
1055.4,-55.336
1058.47,-55.336
1061.53,39.5257
1064.6,39.5257
1067.66,134.387
1070.73,229.249
1073.79,324.111
1076.85,418.972
1079.92,608.696
1082.98,703.557
1086.05,893.281
1089.11,1083
1092.18,1272.73
1095.24,1462.45
1098.31,1557.31
1101.37,1747.04
1104.44,1841.9
1107.5,2031.62
1110.56,2126.48
1113.63,2126.48
1116.69,2221.34
1119.76,2221.34
1122.82,2221.34
1125.89,2221.34
1128.95,2221.34
1132.02,2126.48
1135.08,2031.62
1138.15,1936.76
1141.21,1841.9
1144.27,1747.04
1147.34,1652.17
1150.4,1462.45
1153.47,1367.59
1156.53,1272.73
1159.6,1177.87
1162.66,1177.87
1165.73,1177.87
1168.79,1272.73
1171.85,1367.59
1174.92,1462.45
1177.98,1557.31
1181.05,1652.17
1184.11,1841.9
1187.18,1936.76
1190.24,1936.76
1193.31,2031.62
1196.37,2031.62
1199.44,1936.76
1202.5,1936.76
1205.56,1936.76
1208.63,1841.9
1211.69,1652.17
1214.76,1462.45
1217.82,1272.73
1220.89,1083
1223.95,798.419
1227.02,608.696
1230.08,418.972
1233.15,229.249
1236.21,134.387
1239.27,39.5257
1242.34,-55.336
1245.4,-55.336
1248.47,-55.336
1251.53,-55.336
1254.6,-55.336
1257.66,-55.336
1260.73,39.5257
1263.79,134.387
1266.85,324.111
1269.92,798.419
1272.98,1367.59
1276.05,2126.48
1279.11,2980.24
1282.18,4118.58
1285.24,5256.92
1288.31,6490.12
1291.37,7818.18
1294.44,9146.25
1297.5,10474.3
1300.56,11802.4
1303.63,13130.4
1306.69,14648.2
1309.76,16166
1312.82,17399.2
1315.89,18442.7
1318.95,19391.3
1322.02,20150.2
1325.08,20434.8
1328.15,20434.8
1331.21,20339.9
1334.27,20150.2
1337.34,19391.3
1340.4,18442.7
1343.47,17304.3
1346.53,15881.4
1349.6,14458.5
1352.66,12845.8
1355.73,11328.1
1358.79,9810.28
1361.85,8387.35
1364.92,6964.43
1367.98,5541.5
1371.05,4308.3
1374.11,3359.68
1377.18,2600.79
1380.24,1841.9
1383.31,1272.73
1386.37,893.281
1389.44,513.834
1392.5,324.111
1395.56,134.387
1398.63,39.5257
1401.69,39.5257
1404.76,39.5257
1407.82,39.5257
1410.89,-55.336
1413.95,-55.336
1417.02,-55.336
1420.08,-55.336
1423.15,-55.336
1426.21,-55.336
1429.27,-55.336
1432.34,39.5257
1435.4,39.5257
1438.47,134.387
1441.53,229.249
1444.6,418.972
1447.66,608.696
1450.73,703.557
1453.79,893.281
1456.85,1177.87
1459.92,1367.59
1462.98,1652.17
1466.05,1841.9
1469.11,2221.34
1472.18,2505.93
1475.24,2790.51
1478.31,3075.1
1481.37,3359.68
1484.44,3549.41
1487.5,3833.99
1490.56,4023.72
1493.63,4023.72
1496.69,4118.58
1499.76,4213.44
1502.82,4213.44
1505.89,4213.44
1508.95,4213.44
1512.02,4213.44
1515.08,4308.3
1518.15,4403.16
1521.21,4403.16
1524.27,4498.02
1527.34,4592.89
1530.4,4687.75
1533.47,4782.61
1536.53,4972.33
1539.6,5067.19
1542.66,5067.19
1545.73,5067.19
1548.79,5067.19
1551.85,5067.19
1554.92,4972.33
1557.98,4877.47
1561.05,4592.89
1564.11,4308.3
1567.18,4023.72
1570.24,3739.13
1573.31,3454.55
1576.37,2980.24
1579.44,2600.79
1582.5,2221.34
1585.56,1841.9
1588.63,1462.45
1591.69,1083
1594.76,798.419
1597.82,513.834
1600.89,324.111
1603.95,229.249
1607.02,39.5257
1610.08,-55.336
1613.15,-55.336
1616.21,-55.336
1619.27,39.5257
1622.34,134.387
1625.4,229.249
1628.47,229.249
1631.53,324.111
1634.6,418.972
1637.66,513.834
1640.73,608.696
1643.79,608.696
1646.85,703.557
1649.92,798.419
1652.98,988.142
1656.05,1083
1659.11,1177.87
1662.18,1367.59
1665.24,1557.31
1668.31,1747.04
1671.37,2031.62
1674.44,2221.34
1677.5,2411.07
1680.56,2600.79
1683.63,2885.38
1686.69,3075.1
1689.76,3359.68
1692.82,3549.41
1695.89,3644.27
1698.95,3833.99
1702.02,3928.85
1705.08,3928.85
1708.15,4023.72
1711.21,4023.72
1714.27,3928.85
1717.34,3928.85
1720.4,3833.99
1723.47,3644.27
1726.53,3549.41
1729.6,3264.82
1732.66,3075.1
1735.73,2790.51
1738.79,2505.93
1741.85,2221.34
1744.92,1936.76
1747.98,1747.04
1751.05,1462.45
1754.11,1272.73
1757.18,988.142
1760.24,798.419
1763.31,608.696
1766.37,418.972
1769.44,324.111
1772.5,229.249
1775.56,39.5257
1778.63,-55.336
1781.69,-55.336
1784.76,-55.336
1787.82,-55.336
1790.89,39.5257
1793.95,134.387
1797.02,324.111
1800.08,513.834
1803.15,703.557
1806.21,893.281
1809.27,1177.87
1812.34,1462.45
1815.4,1747.04
1818.47,2031.62
1821.53,2411.07
1824.6,2695.65
1827.66,2980.24
1830.73,3264.82
1833.79,3549.41
1836.85,3833.99
1839.92,4118.58
1842.98,4308.3
1846.05,4592.89
1849.11,4782.61
1852.18,4782.61
1855.24,4877.47
1858.31,4877.47
1861.37,4782.61
1864.44,4782.61
1867.5,4782.61
1870.56,4592.89
1873.63,4498.02
1876.69,4308.3
1879.76,4023.72
1882.82,3833.99
1885.89,3549.41
1888.95,3264.82
1892.02,2980.24
1895.08,2695.65
1898.15,2316.21
1901.21,2031.62
1904.27,1841.9
1907.34,1557.31
1910.4,1272.73
1913.47,988.142
1916.53,798.419
1919.6,608.696
1922.66,418.972
1925.73,324.111
1928.79,134.387
1931.85,39.5257
1934.92,39.5257
1937.98,-55.336
1941.05,-55.336
1944.11,-55.336
1947.18,-55.336
1950.24,-55.336
1953.31,-55.336
1956.37,-55.336
1959.44,-55.336
1962.5,-55.336
1965.56,-55.336
1968.63,-55.336
1971.69,-55.336
1974.76,-55.336
1977.82,-55.336
1980.89,-55.336
1983.95,-55.336
1987.02,-55.336
1990.08,-55.336
1993.15,-55.336
1996.21,-55.336
1999.27,-55.336
2002.34,-55.336
2005.4,-55.336
2008.47,-55.336
2011.53,-55.336
2014.6,-55.336
2017.66,-55.336
2020.73,-55.336
2023.79,-55.336
2026.85,-55.336
2029.92,-55.336
2032.98,-55.336
2036.05,-55.336
2039.11,-55.336
2042.18,-55.336
2045.24,-55.336
2048.31,-55.336
2051.37,-55.336
2054.44,-55.336
2057.5,-55.336
2060.56,-55.336
2063.63,-55.336
2066.69,-55.336
2069.76,-55.336
2072.82,-55.336
2075.89,-55.336
2078.95,-55.336
2082.02,-55.336
2085.08,-55.336
2088.15,-55.336
2091.21,-55.336
2094.27,-55.336
2097.34,-55.336
2100.4,-55.336
2103.47,-55.336
2106.53,-55.336
2109.6,-55.336
2112.66,-55.336
2115.73,-55.336
2118.79,-55.336
2121.85,-55.336
2124.92,-55.336
2127.98,-55.336
2131.05,-55.336
2134.11,-55.336
2137.18,-55.336
2140.24,-55.336
2143.31,-55.336
2146.37,-55.336
2149.44,-55.336
2152.5,-55.336
2155.56,-55.336
2158.63,-55.336
2161.69,-55.336
2164.76,-55.336
2167.82,-55.336
2170.89,-55.336
2173.95,-55.336
2177.02,-55.336
2180.08,-55.336
2183.15,-55.336
2186.21,-55.336
2189.27,-55.336
2192.34,-55.336
2195.4,-55.336
2198.47,-55.336
2201.53,-55.336
2204.6,-55.336
2207.66,-55.336
2210.73,-55.336
2213.79,-55.336
2216.85,-55.336
2219.92,-55.336
2222.98,-55.336
2226.05,-55.336
2229.11,-55.336
2232.18,-55.336
2235.24,-55.336
2238.31,-55.336
2241.37,-55.336
2244.44,-55.336
2247.5,-55.336
2250.56,-55.336
2253.63,-55.336
2256.69,-55.336
2259.76,-55.336
2262.82,-55.336
2265.89,-55.336
2268.95,-55.336
2272.02,-55.336
2275.08,-55.336
2278.15,-55.336
2281.21,-55.336
2284.27,-55.336
2287.34,-55.336
2290.4,-55.336
2293.47,-55.336
