,GP550R
RamanShit,Intensity
261.817,49.0196
264.871,29.4118
267.926,29.4118
270.981,29.4118
274.035,29.4118
277.09,29.4118
280.145,29.4118
283.199,29.4118
286.254,49.0196
289.309,68.6275
292.363,88.2353
295.418,147.059
298.473,147.059
301.527,147.059
304.582,127.451
307.637,127.451
310.691,107.843
313.746,88.2353
316.801,29.4118
319.855,29.4118
322.91,49.0196
325.965,68.6275
329.019,147.059
332.074,245.098
335.129,362.745
338.183,676.471
341.238,1676.47
344.293,2500
347.347,3264.71
353.457,1990.2
356.511,1303.92
359.566,715.686
362.621,539.216
365.675,519.608
368.73,500
371.785,500
374.839,500
377.894,500
380.949,539.216
384.003,598.039
387.058,637.255
390.113,637.255
393.167,656.863
396.222,696.078
399.277,637.255
402.331,637.255
405.386,617.647
408.441,598.039
411.495,656.863
414.55,676.471
417.605,676.471
420.659,715.686
423.714,656.863
426.768,617.647
429.823,539.216
432.878,460.784
435.932,382.353
438.987,343.137
442.042,343.137
445.096,343.137
448.151,323.529
451.206,284.314
454.26,205.882
457.315,107.843
460.37,49.0196
463.424,49.0196
466.479,49.0196
469.534,49.0196
472.588,88.2353
475.643,127.451
478.698,245.098
481.752,421.569
484.807,382.353
487.862,343.137
490.916,303.922
493.971,225.49
497.026,186.275
500.08,186.275
503.135,186.275
506.19,205.882
509.244,205.882
512.299,205.882
515.354,205.882
518.408,205.882
521.463,205.882
524.518,205.882
527.572,186.275
530.627,186.275
533.682,186.275
536.736,147.059
539.791,107.843
542.846,68.6275
545.9,68.6275
548.955,68.6275
552.01,68.6275
555.064,88.2353
558.119,88.2353
561.174,88.2353
564.228,88.2353
567.283,88.2353
570.338,68.6275
573.392,68.6275
576.447,68.6275
579.502,68.6275
582.556,68.6275
585.611,68.6275
588.666,88.2353
591.72,107.843
594.775,147.059
597.83,186.275
600.884,245.098
603.939,284.314
606.994,362.745
610.048,382.353
613.103,382.353
616.158,362.745
619.212,343.137
622.267,284.314
625.322,245.098
628.376,264.706
631.431,264.706
634.486,284.314
637.54,362.745
640.595,284.314
643.65,245.098
646.704,205.882
649.759,186.275
652.814,205.882
655.868,225.49
658.923,284.314
661.977,441.176
665.032,558.824
668.087,715.686
671.141,578.431
674.196,558.824
677.251,519.608
680.305,421.569
683.36,362.745
686.415,323.529
689.469,264.706
692.524,205.882
695.579,147.059
698.633,107.843
701.688,88.2353
704.743,68.6275
707.797,49.0196
710.852,49.0196
713.907,68.6275
716.961,88.2353
720.016,88.2353
723.071,107.843
726.125,107.843
729.18,107.843
732.235,107.843
735.289,88.2353
738.344,88.2353
741.399,88.2353
744.453,68.6275
747.508,68.6275
750.563,68.6275
753.617,68.6275
756.672,68.6275
759.727,68.6275
762.781,49.0196
765.836,29.4118
768.891,29.4118
771.945,49.0196
775,68.6275
778.055,88.2353
781.109,88.2353
784.164,88.2353
787.219,68.6275
790.273,68.6275
793.328,49.0196
796.383,49.0196
799.437,49.0196
802.492,68.6275
805.547,88.2353
808.601,107.843
811.656,127.451
814.711,166.667
817.765,166.667
820.82,166.667
823.875,166.667
826.929,166.667
829.984,166.667
833.039,186.275
836.093,166.667
839.148,166.667
842.203,147.059
845.257,147.059
848.312,107.843
851.367,107.843
854.421,107.843
857.476,107.843
860.531,107.843
863.585,107.843
866.64,88.2353
869.695,88.2353
872.749,88.2353
875.804,88.2353
878.859,68.6275
881.913,49.0196
884.968,49.0196
888.023,49.0196
891.077,49.0196
894.132,49.0196
897.186,49.0196
900.241,49.0196
903.296,49.0196
906.35,49.0196
909.405,68.6275
912.46,88.2353
915.514,88.2353
918.569,88.2353
921.624,88.2353
924.678,88.2353
927.733,68.6275
930.788,68.6275
933.842,68.6275
936.897,88.2353
939.952,88.2353
943.006,88.2353
946.061,107.843
949.116,107.843
952.17,107.843
955.225,88.2353
958.28,68.6275
961.334,68.6275
964.389,68.6275
967.444,68.6275
970.498,68.6275
973.553,68.6275
976.608,68.6275
979.662,68.6275
982.717,68.6275
985.772,49.0196
988.826,49.0196
991.881,49.0196
994.936,49.0196
997.99,49.0196
1001.05,49.0196
1004.1,49.0196
1007.15,68.6275
1010.21,68.6275
1013.26,68.6275
1016.32,68.6275
1019.37,68.6275
1022.43,68.6275
1025.48,68.6275
1028.54,88.2353
1031.59,88.2353
1034.65,88.2353
1037.7,107.843
1040.76,127.451
1043.81,107.843
1046.86,107.843
1049.92,127.451
1052.97,127.451
1056.03,127.451
1059.08,127.451
1062.14,127.451
1065.19,127.451
1068.25,127.451
1071.3,166.667
1074.36,205.882
1077.41,107.843
1080.47,88.2353
1083.52,88.2353
1086.58,68.6275
1089.63,88.2353
1092.68,88.2353
1095.74,88.2353
1098.79,127.451
1101.85,166.667
1104.9,147.059
1107.96,147.059
1111.01,127.451
1114.07,127.451
1117.12,127.451
1120.18,107.843
1123.23,107.843
1126.29,166.667
1129.34,205.882
1132.4,264.706
1135.45,303.922
1138.5,401.961
1141.56,519.608
1144.61,598.039
1147.67,676.471
1150.72,715.686
1153.78,735.294
1156.83,774.51
1159.89,872.549
1162.94,970.588
1166,1088.24
1169.05,1068.63
1172.11,970.588
1175.16,872.549
1178.22,676.471
1181.27,519.608
1184.32,362.745
1187.38,264.706
1190.43,225.49
1193.49,147.059
1196.54,107.843
1199.6,88.2353
1202.65,107.843
1205.71,127.451
1208.76,186.275
1211.82,284.314
1214.87,343.137
1217.93,401.961
1220.98,441.176
1224.04,460.784
1227.09,421.569
1230.14,401.961
1233.2,362.745
1236.25,343.137
1239.31,284.314
1242.36,225.49
1245.42,225.49
1248.47,205.882
1251.53,166.667
1254.58,147.059
1257.64,107.843
1260.69,107.843
1263.75,107.843
1266.8,127.451
1269.86,186.275
1272.91,284.314
1275.96,362.745
1279.02,401.961
1282.07,401.961
1285.13,441.176
1288.18,362.745
1291.24,284.314
1294.29,205.882
1297.35,166.667
1300.4,147.059
1303.46,166.667
1306.51,166.667
1309.57,186.275
1312.62,205.882
1315.68,205.882
1318.73,225.49
1321.78,245.098
1324.84,264.706
1327.89,323.529
1330.95,441.176
1334,617.647
1337.06,754.902
1340.11,852.941
1343.17,911.765
1346.22,931.373
1349.28,911.765
1352.33,892.157
1355.39,774.51
1358.44,676.471
1361.5,617.647
1364.55,539.216
1367.6,441.176
1370.66,343.137
1373.71,343.137
1376.77,284.314
1379.82,225.49
1382.88,225.49
1385.93,225.49
1388.99,225.49
1392.04,225.49
1395.1,245.098
1398.15,264.706
1401.21,284.314
1404.26,323.529
1407.32,382.353
1410.37,343.137
1413.42,343.137
1416.48,303.922
1419.53,245.098
1422.59,205.882
1425.64,166.667
1428.7,127.451
1431.75,127.451
1434.81,127.451
1437.86,88.2353
1440.92,49.0196
1443.97,49.0196
1447.03,49.0196
1450.08,68.6275
1453.14,88.2353
1456.19,88.2353
1459.24,88.2353
1462.3,88.2353
1465.35,68.6275
1468.41,88.2353
1471.46,88.2353
1474.52,88.2353
1477.57,107.843
1480.63,127.451
1483.68,127.451
1486.74,127.451
1489.79,127.451
1492.85,127.451
1495.9,107.843
1498.95,127.451
1502.01,147.059
1505.06,147.059
1508.12,147.059
1511.17,166.667
1514.23,186.275
1517.28,186.275
1520.34,186.275
1523.39,186.275
1526.45,186.275
1529.5,166.667
1532.56,166.667
1535.61,166.667
1538.67,186.275
1541.72,205.882
1544.77,205.882
1547.83,225.49
1550.88,284.314
1553.94,362.745
1556.99,382.353
1560.05,401.961
1563.1,401.961
1566.16,441.176
1569.21,558.824
1572.27,500
1575.32,441.176
1578.38,441.176
1581.43,421.569
1584.49,401.961
1587.54,421.569
1590.59,441.176
1593.65,460.784
1596.7,480.392
1599.76,519.608
1602.81,519.608
1605.87,519.608
1608.92,519.608
1611.98,500
1615.03,460.784
1618.09,362.745
1621.14,303.922
1624.2,264.706
1627.25,205.882
1630.31,147.059
1633.36,127.451
1636.41,107.843
1639.47,107.843
1642.52,107.843
1645.58,107.843
1648.63,107.843
1651.69,127.451
1654.74,127.451
1657.8,147.059
1660.85,147.059
1663.91,147.059
1666.96,186.275
1670.02,166.667
1673.07,166.667
1676.13,166.667
1679.18,147.059
1682.23,147.059
1685.29,147.059
1688.34,147.059
1691.4,147.059
1694.45,166.667
1697.51,166.667
1700.56,186.275
1703.62,186.275
1706.67,205.882
1709.73,225.49
1712.78,186.275
1715.84,166.667
1718.89,147.059
1721.95,147.059
1725,107.843
1728.05,147.059
1731.11,147.059
1734.16,147.059
1737.22,147.059
1740.27,127.451
1743.33,107.843
1746.38,107.843
1749.44,107.843
1752.49,127.451
1755.55,127.451
1758.6,127.451
1761.66,186.275
1764.71,245.098
1767.77,264.706
1770.82,264.706
1773.87,264.706
1776.93,264.706
1779.98,245.098
1783.04,245.098
1786.09,225.49
1789.15,225.49
1792.2,225.49
1795.26,225.49
1798.31,225.49
1801.37,245.098
1804.42,245.098
1807.48,284.314
1810.53,303.922
1813.59,303.922
1816.64,323.529
1819.69,323.529
1822.75,303.922
1825.8,303.922
1828.86,264.706
1831.91,225.49
1834.97,225.49
1838.02,205.882
1841.08,245.098
1844.13,264.706
1847.19,264.706
1850.24,245.098
1853.3,245.098
1856.35,225.49
1859.41,225.49
1862.46,245.098
1865.51,264.706
1868.57,284.314
1871.62,303.922
1874.68,303.922
1877.73,303.922
1880.79,303.922
1883.84,284.314
1886.9,264.706
1889.95,245.098
1893.01,205.882
1896.06,205.882
1899.12,205.882
1902.17,205.882
1905.23,205.882
1908.28,225.49
1911.33,225.49
1914.39,225.49
1917.44,225.49
1920.5,245.098
1923.55,245.098
1926.61,264.706
1929.66,264.706
1932.72,264.706
1935.77,264.706
1938.83,264.706
1941.88,264.706
1944.94,245.098
1947.99,205.882
1951.05,205.882
1954.1,205.882
1957.15,205.882
1960.21,205.882
1963.26,225.49
1966.32,264.706
1969.37,186.275
1972.43,186.275
1975.48,166.667
1978.54,166.667
1981.59,166.667
1984.65,186.275
1987.7,186.275
1990.76,186.275
1993.81,166.667
1996.86,166.667
1999.92,166.667
2002.97,166.667
2006.03,225.49
2009.08,166.667
2012.14,166.667
2015.19,186.275
2018.25,205.882
2021.3,225.49
2024.36,245.098
2027.41,303.922
2030.47,264.706
2033.52,245.098
2036.58,245.098
2039.63,245.098
2042.68,166.667
2045.74,264.706
2048.79,264.706
2051.85,284.314
2054.9,303.922
2057.96,264.706
2061.01,245.098
2064.07,205.882
2067.12,186.275
2070.18,166.667
2073.23,166.667
2076.29,186.275
2079.34,205.882
2082.4,205.882
2085.45,205.882
2088.5,205.882
2091.56,205.882
2094.61,166.667
2097.67,205.882
2100.72,225.49
2103.78,245.098
2106.83,245.098
2109.89,245.098
2112.94,264.706
2116,264.706
2119.05,264.706
2122.11,264.706
2125.16,264.706
2128.22,264.706
2131.27,284.314
2134.32,284.314
2137.38,284.314
2140.43,284.314
2143.49,245.098
2146.54,205.882
2149.6,186.275
2152.65,166.667
2155.71,147.059
2158.76,147.059
2161.82,147.059
2164.87,147.059
2167.93,166.667
2170.98,166.667
2174.04,205.882
2177.09,225.49
2180.14,225.49
2183.2,225.49
2186.25,205.882
2189.31,205.882
2192.36,166.667
2195.42,107.843
2198.47,107.843
2201.53,107.843
2204.58,127.451
2207.64,147.059
2210.69,186.275
2213.75,284.314
2216.8,323.529
2219.86,323.529
2222.91,343.137
2225.96,382.353
2229.02,245.098
2232.07,186.275
2235.13,166.667
2238.18,205.882
2241.24,225.49
2244.29,245.098
2247.35,245.098
2250.4,303.922
2253.46,225.49
2256.51,205.882
2259.57,147.059
2262.62,107.843
2265.68,107.843
2268.73,88.2353
2271.78,88.2353
2274.84,88.2353
2277.89,88.2353
2280.95,88.2353
2284,107.843
2287.06,205.882
2290.11,343.137
2293.17,421.569
