,GP550R
RamanShit,Intensity
264.815,53.1496
267.874,33.4646
270.934,33.4646
273.994,33.4646
277.053,33.4646
280.113,33.4646
283.172,33.4646
286.232,53.1496
289.291,53.1496
292.351,72.8346
295.411,92.5197
298.47,112.205
301.53,131.89
304.589,131.89
307.649,112.205
310.709,112.205
313.768,92.5197
316.828,72.8346
319.887,53.1496
322.947,53.1496
326.006,53.1496
329.066,72.8346
332.126,112.205
335.185,171.26
338.245,269.685
341.304,545.276
344.364,1372.05
347.424,2021.65
350.483,2631.89
353.543,2021.65
356.602,1706.69
359.662,1037.4
362.721,564.961
365.781,407.48
368.841,387.795
371.9,368.11
374.96,348.425
378.019,328.74
381.079,328.74
384.138,328.74
387.198,368.11
390.258,387.795
393.317,387.795
396.377,407.48
399.436,407.48
402.496,387.795
405.556,368.11
408.615,348.425
411.675,348.425
414.734,368.11
417.794,387.795
420.853,407.48
423.913,407.48
426.973,387.795
430.032,368.11
433.092,309.055
436.151,250
439.211,210.63
442.271,210.63
445.33,190.945
448.39,190.945
451.449,190.945
454.509,171.26
457.568,112.205
460.628,72.8346
463.688,33.4646
466.747,33.4646
469.807,33.4646
472.866,33.4646
475.926,33.4646
478.986,33.4646
482.045,33.4646
485.105,53.1496
488.164,53.1496
491.224,53.1496
494.283,33.4646
497.343,33.4646
500.403,33.4646
503.462,33.4646
506.522,72.8346
509.581,92.5197
512.641,112.205
515.7,112.205
518.76,112.205
521.82,112.205
524.879,112.205
527.939,112.205
530.998,112.205
534.058,112.205
537.118,112.205
540.177,112.205
543.237,151.575
546.296,72.8346
549.356,72.8346
552.415,72.8346
555.475,92.5197
558.535,112.205
561.594,112.205
564.654,112.205
567.713,112.205
570.773,112.205
573.833,112.205
576.892,131.89
579.952,131.89
583.011,131.89
586.071,131.89
589.13,131.89
592.19,151.575
595.25,171.26
598.309,190.945
601.369,210.63
604.428,230.315
607.488,269.685
610.548,309.055
613.607,309.055
616.667,309.055
619.726,289.37
622.786,289.37
625.845,250
628.905,230.315
631.965,250
635.024,250
638.084,269.685
641.143,309.055
644.203,250
647.262,210.63
650.322,151.575
653.382,131.89
656.441,151.575
659.501,171.26
662.56,210.63
665.62,328.74
668.68,427.165
671.739,525.591
674.799,427.165
677.858,407.48
680.918,368.11
683.977,289.37
687.037,250
690.097,210.63
693.156,171.26
696.216,151.575
699.275,112.205
702.335,72.8346
705.395,53.1496
708.454,53.1496
711.514,53.1496
714.573,53.1496
717.633,53.1496
720.692,53.1496
723.752,53.1496
726.812,53.1496
729.871,33.4646
732.931,33.4646
735.99,33.4646
739.05,33.4646
742.11,33.4646
745.169,33.4646
748.229,33.4646
751.288,33.4646
754.348,33.4646
757.407,53.1496
760.467,53.1496
763.527,53.1496
766.586,33.4646
769.646,33.4646
772.705,33.4646
775.765,33.4646
778.824,33.4646
781.884,53.1496
784.944,33.4646
788.003,33.4646
791.063,33.4646
794.122,33.4646
797.182,33.4646
800.242,33.4646
803.301,53.1496
806.361,53.1496
809.42,53.1496
812.48,72.8346
815.539,92.5197
818.599,112.205
821.659,131.89
824.718,131.89
827.778,131.89
830.837,151.575
833.897,151.575
836.957,151.575
840.016,151.575
843.076,151.575
846.135,151.575
849.195,151.575
852.254,151.575
855.314,131.89
858.374,151.575
861.433,151.575
864.493,151.575
867.552,151.575
870.612,151.575
873.671,171.26
876.731,171.26
879.791,171.26
882.85,171.26
885.91,151.575
888.969,151.575
892.029,131.89
895.089,131.89
898.148,131.89
901.208,112.205
904.267,92.5197
907.327,92.5197
910.386,92.5197
913.446,92.5197
916.506,92.5197
919.565,92.5197
922.625,92.5197
925.684,92.5197
928.744,92.5197
931.804,112.205
934.863,92.5197
937.923,92.5197
940.982,92.5197
944.042,92.5197
947.101,92.5197
950.161,92.5197
953.221,92.5197
956.28,72.8346
959.34,72.8346
962.399,53.1496
965.459,53.1496
968.519,53.1496
971.578,72.8346
974.638,72.8346
977.697,72.8346
980.757,72.8346
983.816,72.8346
986.876,72.8346
989.936,72.8346
992.995,72.8346
996.055,53.1496
999.114,53.1496
1002.17,53.1496
1005.23,53.1496
1008.29,53.1496
1011.35,53.1496
1014.41,53.1496
1017.47,53.1496
1020.53,33.4646
1023.59,33.4646
1026.65,33.4646
1029.71,53.1496
1032.77,53.1496
1035.83,53.1496
1038.89,72.8346
1041.95,72.8346
1045.01,92.5197
1048.07,72.8346
1051.13,72.8346
1054.19,72.8346
1057.25,72.8346
1060.31,72.8346
1063.37,72.8346
1066.43,72.8346
1069.48,72.8346
1072.54,92.5197
1075.6,92.5197
1078.66,112.205
1081.72,112.205
1084.78,112.205
1087.84,92.5197
1090.9,92.5197
1093.96,92.5197
1097.02,72.8346
1100.08,92.5197
1103.14,92.5197
1106.2,112.205
1109.26,131.89
1112.32,131.89
1115.38,131.89
1118.44,151.575
1121.5,151.575
1124.56,151.575
1127.62,131.89
1130.68,151.575
1133.74,151.575
1136.8,151.575
1139.86,171.26
1142.91,210.63
1145.97,250
1149.03,250
1152.09,269.685
1155.15,269.685
1158.21,269.685
1161.27,269.685
1164.33,309.055
1167.39,348.425
1170.45,368.11
1173.51,368.11
1176.57,348.425
1179.63,328.74
1182.69,309.055
1185.75,250
1188.81,190.945
1191.87,190.945
1194.93,171.26
1197.99,131.89
1201.05,112.205
1204.11,131.89
1207.17,151.575
1210.23,171.26
1213.29,171.26
1216.34,171.26
1219.4,190.945
1222.46,190.945
1225.52,190.945
1228.58,171.26
1231.64,171.26
1234.7,151.575
1237.76,131.89
1240.82,131.89
1243.88,131.89
1246.94,131.89
1250,131.89
1253.06,171.26
1256.12,112.205
1259.18,92.5197
1262.24,72.8346
1265.3,72.8346
1268.36,72.8346
1271.42,72.8346
1274.48,92.5197
1277.54,92.5197
1280.6,92.5197
1283.66,112.205
1286.71,92.5197
1289.77,72.8346
1292.83,72.8346
1295.89,72.8346
1298.95,72.8346
1302.01,72.8346
1305.07,72.8346
1308.13,72.8346
1311.19,92.5197
1314.25,92.5197
1317.31,112.205
1320.37,112.205
1323.43,112.205
1326.49,112.205
1329.55,131.89
1332.61,151.575
1335.67,210.63
1338.73,289.37
1341.79,328.74
1344.85,368.11
1347.91,368.11
1350.97,368.11
1354.03,348.425
1357.09,348.425
1360.14,309.055
1363.2,289.37
1366.26,269.685
1369.32,250
1372.38,230.315
1375.44,230.315
1378.5,230.315
1381.56,230.315
1384.62,230.315
1387.68,230.315
1390.74,230.315
1393.8,230.315
1396.86,230.315
1399.92,230.315
1402.98,250
1406.04,250
1409.1,269.685
1412.16,269.685
1415.22,269.685
1418.28,269.685
1421.34,269.685
1424.4,269.685
1427.46,250
1430.52,250
1433.57,250
1436.63,230.315
1439.69,190.945
1442.75,190.945
1445.81,171.26
1448.87,171.26
1451.93,190.945
1454.99,190.945
1458.05,190.945
1461.11,190.945
1464.17,190.945
1467.23,190.945
1470.29,190.945
1473.35,171.26
1476.41,171.26
1479.47,171.26
1482.53,151.575
1485.59,151.575
1488.65,151.575
1491.71,151.575
1494.77,151.575
1497.83,151.575
1500.89,151.575
1503.95,151.575
1507,151.575
1510.06,151.575
1513.12,151.575
1516.18,151.575
1519.24,151.575
1522.3,151.575
1525.36,151.575
1528.42,151.575
1531.48,151.575
1534.54,151.575
1537.6,190.945
1540.66,230.315
1543.72,151.575
1546.78,151.575
1549.84,171.26
1552.9,210.63
1555.96,250
1559.02,250
1562.08,250
1565.14,250
1568.2,250
1571.26,289.37
1574.32,230.315
1577.38,210.63
1580.43,210.63
1583.49,190.945
1586.55,190.945
1589.61,190.945
1592.67,210.63
1595.73,230.315
1598.79,269.685
1601.85,289.37
1604.91,289.37
1607.97,289.37
1611.03,289.37
1614.09,289.37
1617.15,269.685
1620.21,230.315
1623.27,190.945
1626.33,171.26
1629.39,171.26
1632.45,151.575
1635.51,151.575
1638.57,190.945
1641.63,151.575
1644.69,151.575
1647.75,131.89
1650.81,151.575
1653.86,151.575
1656.92,171.26
1659.98,190.945
1663.04,190.945
1666.1,190.945
1669.16,210.63
1672.22,210.63
1675.28,230.315
1678.34,230.315
1681.4,230.315
1684.46,230.315
1687.52,230.315
1690.58,230.315
1693.64,230.315
1696.7,250
1699.76,250
1702.82,269.685
1705.88,269.685
1708.94,289.37
1712,309.055
1715.06,269.685
1718.12,250
1721.18,250
1724.24,250
1727.29,230.315
1730.35,250
1733.41,250
1736.47,250
1739.53,250
1742.59,230.315
1745.65,210.63
1748.71,190.945
1751.77,190.945
1754.83,190.945
1757.89,190.945
1760.95,210.63
1764.01,230.315
1767.07,250
1770.13,289.37
1773.19,250
1776.25,250
1779.31,250
1782.37,250
1785.43,210.63
1788.49,210.63
1791.55,210.63
1794.61,210.63
1797.67,210.63
1800.72,210.63
1803.78,210.63
1806.84,210.63
1809.9,250
1812.96,289.37
1816.02,309.055
1819.08,309.055
1822.14,309.055
1825.2,309.055
1828.26,289.37
1831.32,230.315
1834.38,190.945
1837.44,190.945
1840.5,171.26
1843.56,230.315
1846.62,250
1849.68,269.685
1852.74,250
1855.8,250
1858.86,250
1861.92,250
1864.98,269.685
1868.04,289.37
1871.1,289.37
1874.15,309.055
1877.21,309.055
1880.27,309.055
1883.33,309.055
1886.39,289.37
1889.45,289.37
1892.51,269.685
1895.57,250
1898.63,230.315
1901.69,230.315
1904.75,230.315
1907.81,230.315
1910.87,230.315
1913.93,230.315
1916.99,230.315
1920.05,289.37
1923.11,269.685
1926.17,289.37
1929.23,289.37
1932.29,309.055
1935.35,328.74
1938.41,348.425
1941.47,387.795
1944.52,309.055
1947.58,269.685
1950.64,250
1953.7,250
1956.76,269.685
1959.82,309.055
1962.88,289.37
1965.94,269.685
1969,250
1972.06,250
1975.12,230.315
1978.18,230.315
1981.24,230.315
1984.3,230.315
1987.36,230.315
1990.42,269.685
1993.48,309.055
1996.54,230.315
1999.6,230.315
2002.66,230.315
2005.72,230.315
2008.78,210.63
2011.84,210.63
2014.9,210.63
2017.95,210.63
2021.01,210.63
2024.07,210.63
2027.13,210.63
2030.19,230.315
2033.25,230.315
2036.31,230.315
2039.37,250
2042.43,269.685
2045.49,269.685
2048.55,269.685
2051.61,269.685
2054.67,269.685
2057.73,269.685
2060.79,250
2063.85,230.315
2066.91,171.26
2069.97,151.575
2073.03,131.89
2076.09,131.89
2079.15,131.89
2082.21,151.575
2085.27,171.26
2088.33,171.26
2091.38,210.63
2094.44,171.26
2097.5,171.26
2100.56,171.26
2103.62,171.26
2106.68,171.26
2109.74,171.26
2112.8,230.315
2115.86,250
2118.92,250
2121.98,269.685
2125.04,269.685
2128.1,269.685
2131.16,269.685
2134.22,269.685
2137.28,269.685
2140.34,250
2143.4,250
2146.46,230.315
2149.52,171.26
2152.58,171.26
2155.64,151.575
2158.7,131.89
2161.76,112.205
2164.81,112.205
2167.87,112.205
2170.93,131.89
2173.99,131.89
2177.05,250
2180.11,190.945
2183.17,190.945
2186.23,171.26
2189.29,171.26
2192.35,151.575
2195.41,131.89
2198.47,92.5197
2201.53,92.5197
2204.59,112.205
2207.65,151.575
2210.71,190.945
2213.77,210.63
2216.83,230.315
2219.89,269.685
2222.95,269.685
2226.01,289.37
2229.07,269.685
2232.13,250
2235.19,250
2238.24,230.315
2241.3,250
2244.36,269.685
2247.42,269.685
2250.48,269.685
2253.54,328.74
2256.6,250
2259.66,230.315
2262.72,171.26
2265.78,151.575
2268.84,151.575
2271.9,151.575
2274.96,151.575
2278.02,151.575
2281.08,151.575
2284.14,151.575
2287.2,151.575
2290.26,72.8346
2293.32,328.74
2296.38,407.48
