,GP550R
RamanShit,Intensity
462.787,137.795
465.544,137.795
468.3,137.795
471.057,137.795
473.813,137.795
476.57,137.795
479.326,137.795
482.083,137.795
484.839,137.795
487.596,137.795
490.352,137.795
493.109,334.646
495.865,334.646
498.622,531.496
501.378,531.496
504.135,728.346
506.891,925.197
509.648,925.197
512.404,925.197
515.161,925.197
517.917,1122.05
520.674,1122.05
523.43,1122.05
526.187,1318.9
528.943,1318.9
531.7,1318.9
534.456,1122.05
537.213,1122.05
539.969,728.346
542.726,728.346
545.482,531.496
548.239,531.496
550.995,334.646
553.752,334.646
556.508,334.646
559.265,334.646
562.021,334.646
564.778,334.646
567.534,334.646
570.291,137.795
573.047,137.795
575.804,137.795
578.56,137.795
581.317,137.795
584.074,137.795
586.83,137.795
589.587,137.795
592.343,137.795
595.1,137.795
597.856,137.795
600.613,334.646
603.369,531.496
606.126,531.496
608.882,531.496
611.639,728.346
614.395,531.496
617.152,531.496
619.908,531.496
622.665,531.496
625.421,531.496
628.178,531.496
630.934,728.346
633.691,728.346
636.447,925.197
639.204,1122.05
641.96,1515.75
644.717,1712.6
647.473,1712.6
650.23,1712.6
652.986,1515.75
655.743,1122.05
658.499,728.346
661.256,531.496
664.012,334.646
666.769,334.646
669.525,137.795
672.282,137.795
675.038,137.795
677.795,137.795
680.551,137.795
683.308,137.795
686.064,137.795
688.821,137.795
691.577,137.795
694.334,137.795
697.09,334.646
699.847,334.646
702.603,531.496
705.36,728.346
708.116,925.197
710.873,925.197
713.629,1122.05
716.386,1318.9
719.142,1318.9
721.899,1318.9
724.655,1318.9
727.412,1318.9
730.168,1318.9
732.925,1318.9
735.681,1122.05
738.438,925.197
741.194,925.197
743.951,728.346
746.708,728.346
749.464,728.346
752.221,728.346
754.977,925.197
757.734,1122.05
760.49,1318.9
763.247,1712.6
766.003,2106.3
768.76,2500
771.516,2696.85
774.273,2696.85
777.029,2696.85
779.786,2696.85
782.542,2500
785.299,2303.15
788.055,1909.45
790.812,1712.6
793.568,1318.9
796.325,1122.05
799.081,925.197
801.838,728.346
804.594,728.346
807.351,531.496
810.107,531.496
812.864,334.646
815.62,334.646
818.377,334.646
821.133,334.646
823.89,137.795
826.646,137.795
829.403,137.795
832.159,137.795
834.916,137.795
837.672,137.795
840.429,137.795
843.185,137.795
845.942,137.795
848.698,137.795
851.455,137.795
854.211,137.795
856.968,137.795
859.724,137.795
862.481,137.795
865.237,137.795
867.994,137.795
870.75,137.795
873.507,137.795
876.263,137.795
879.02,137.795
881.776,137.795
884.533,137.795
887.289,137.795
890.046,137.795
892.802,137.795
895.559,137.795
898.315,137.795
901.072,137.795
903.828,137.795
906.585,137.795
909.342,137.795
912.098,137.795
914.855,137.795
917.611,137.795
920.368,137.795
923.124,137.795
925.881,137.795
928.637,137.795
931.394,137.795
934.15,137.795
936.907,137.795
939.663,137.795
942.42,137.795
945.176,137.795
947.933,137.795
950.689,334.646
953.446,334.646
956.202,334.646
958.959,334.646
961.715,334.646
964.472,334.646
967.228,334.646
969.985,334.646
972.741,334.646
975.498,334.646
978.254,334.646
981.011,334.646
983.767,334.646
986.524,334.646
989.28,334.646
992.037,334.646
994.793,334.646
997.55,334.646
1000.31,334.646
1003.06,334.646
1005.82,334.646
1008.58,334.646
1011.33,334.646
1014.09,334.646
1016.85,334.646
1019.6,334.646
1022.36,334.646
1025.11,334.646
1027.87,334.646
1030.63,334.646
1033.38,137.795
1036.14,137.795
1038.9,137.795
1041.65,137.795
1044.41,137.795
1047.17,334.646
1049.92,334.646
1052.68,334.646
1055.44,137.795
1058.19,137.795
1060.95,137.795
1063.71,137.795
1066.46,137.795
1069.22,137.795
1071.98,137.795
1074.73,137.795
1077.49,137.795
1080.25,137.795
1083,137.795
1085.76,137.795
1088.51,137.795
1091.27,137.795
1094.03,137.795
1096.78,137.795
1099.54,137.795
1102.3,137.795
1105.05,137.795
1107.81,137.795
1110.57,137.795
1113.32,137.795
1116.08,137.795
1118.84,137.795
1121.59,137.795
1124.35,334.646
1127.11,334.646
1129.86,334.646
1132.62,531.496
1135.38,728.346
1138.13,925.197
1140.89,1318.9
1143.64,1712.6
1146.4,2106.3
1149.16,2696.85
1151.91,3090.55
1154.67,3681.1
1157.43,4074.8
1160.18,4271.65
1162.94,4271.65
1165.7,4468.5
1168.45,4271.65
1171.21,4271.65
1173.97,4074.8
1176.72,3877.95
1179.48,3681.1
1182.24,3287.4
1184.99,3090.55
1187.75,2893.7
1190.51,2500
1193.26,2303.15
1196.02,1909.45
1198.77,1712.6
1201.53,1515.75
1204.29,1318.9
1207.04,1122.05
1209.8,925.197
1212.56,728.346
1215.31,531.496
1218.07,531.496
1220.83,334.646
1223.58,334.646
1226.34,334.646
1229.1,334.646
1231.85,137.795
1234.61,137.795
1237.37,137.795
1240.12,137.795
1242.88,137.795
1245.64,137.795
1248.39,137.795
1251.15,137.795
1253.91,137.795
1256.66,137.795
1259.42,137.795
1262.17,137.795
1264.93,137.795
1267.69,137.795
1270.44,137.795
1273.2,137.795
1275.96,137.795
1278.71,137.795
1281.47,137.795
1284.23,137.795
1286.98,137.795
1289.74,137.795
1292.5,137.795
1295.25,137.795
1298.01,137.795
1300.77,137.795
1303.52,137.795
1306.28,137.795
1309.04,137.795
1311.79,137.795
1314.55,137.795
1317.3,137.795
1320.06,137.795
1322.82,137.795
1325.57,137.795
1328.33,334.646
1331.09,334.646
1333.84,334.646
1336.6,531.496
1339.36,728.346
1342.11,925.197
1344.87,1122.05
1347.63,1515.75
1350.38,1712.6
1353.14,2303.15
1355.9,2696.85
1358.65,3287.4
1361.41,3681.1
1364.17,4074.8
1366.92,4074.8
1369.68,4271.65
1372.43,4271.65
1375.19,4074.8
1377.95,4074.8
1380.7,3681.1
1383.46,3287.4
1386.22,2893.7
1388.97,2500
1391.73,2106.3
1394.49,1712.6
1397.24,1515.75
1400,1122.05
1402.76,925.197
1405.51,728.346
1408.27,531.496
1411.03,334.646
1413.78,334.646
1416.54,137.795
1419.3,137.795
1422.05,137.795
1424.81,137.795
1427.57,137.795
1430.32,137.795
1433.08,334.646
1435.83,334.646
1438.59,334.646
1441.35,531.496
1444.1,531.496
1446.86,728.346
1449.62,925.197
1452.37,1318.9
1455.13,1515.75
1457.89,2303.15
1460.64,3681.1
1463.4,5846.46
1466.16,8799.21
1468.91,12145.7
1471.67,16673.2
1474.43,22578.7
1477.18,25925.2
1479.94,29271.7
1482.7,25925.2
1485.45,23563
1488.21,18051.2
1490.96,12145.7
1493.72,8011.81
1496.48,5059.06
1499.23,3287.4
1501.99,2303.15
1504.75,1515.75
1507.5,1122.05
1510.26,728.346
1513.02,531.496
1515.77,531.496
1518.53,334.646
1521.29,334.646
1524.04,334.646
1526.8,334.646
1529.56,334.646
1532.31,137.795
1535.07,137.795
1537.83,137.795
1540.58,137.795
1543.34,137.795
1546.09,137.795
1548.85,137.795
1551.61,137.795
1554.36,137.795
1557.12,137.795
1559.88,137.795
1562.63,137.795
1565.39,137.795
1568.15,137.795
1570.9,137.795
1573.66,137.795
1576.42,137.795
1579.17,137.795
1581.93,137.795
1584.69,137.795
1587.44,137.795
1590.2,137.795
1592.96,137.795
1595.71,137.795
1598.47,137.795
1601.23,137.795
1603.98,137.795
1606.74,137.795
1609.49,334.646
1612.25,531.496
1615.01,728.346
1617.76,1122.05
1620.52,1712.6
1623.28,2696.85
1626.03,3877.95
1628.79,5059.06
1631.55,6437.01
1634.3,8011.81
1637.06,9586.61
1639.82,11358.3
1642.57,12933.1
1645.33,14311
1648.09,15098.4
1650.84,15492.1
1653.6,15689
1656.36,15689
1659.11,15689
1661.87,16082.7
1664.62,16870.1
1667.38,18051.2
1670.14,19626
1672.89,21200.8
1675.65,22578.7
1678.41,23956.7
1681.16,25334.6
1683.92,26515.7
1686.68,27893.7
1689.43,28484.3
1692.19,29271.7
1694.95,28287.4
1697.7,26712.6
1700.46,22775.6
1703.22,18248
1705.97,13917.3
1708.73,9980.31
1711.49,6830.71
1714.24,4468.5
1717,2696.85
1719.75,1515.75
1722.51,728.346
1725.27,334.646
1728.02,334.646
1730.78,334.646
1733.54,531.496
1736.29,728.346
1739.05,925.197
1741.81,1122.05
1744.56,1515.75
1747.32,1712.6
1750.08,2106.3
1752.83,2500
1755.59,2893.7
1758.35,3484.25
1761.1,4074.8
1763.86,4468.5
1766.62,5059.06
1769.37,5452.76
1772.13,5649.61
1774.89,5846.46
1777.64,5846.46
1780.4,5846.46
1783.15,5649.61
1785.91,5255.91
1788.67,4862.2
1791.42,4468.5
1794.18,3877.95
1796.94,3484.25
1799.69,3090.55
1802.45,2696.85
1805.21,2500
1807.96,2106.3
1810.72,1712.6
1813.48,1515.75
1816.23,1318.9
1818.99,925.197
1821.75,728.346
1824.5,531.496
1827.26,334.646
1830.02,334.646
1832.77,137.795
1835.53,137.795
1838.28,137.795
1841.04,137.795
1843.8,137.795
1846.55,137.795
1849.31,137.795
1852.07,137.795
1854.82,137.795
1857.58,137.795
1860.34,137.795
1863.09,137.795
1865.85,137.795
1868.61,137.795
1871.36,137.795
1874.12,137.795
1876.88,137.795
1879.63,137.795
1882.39,137.795
1885.15,137.795
1887.9,137.795
1890.66,137.795
1893.42,137.795
1896.17,137.795
1898.93,137.795
1901.68,137.795
1904.44,334.646
1907.2,531.496
1909.95,728.346
1912.71,1122.05
1915.47,1318.9
1918.22,1712.6
1920.98,2106.3
1923.74,2696.85
1926.49,3287.4
1929.25,3877.95
1932.01,4665.35
1934.76,5649.61
1937.52,6437.01
1940.28,7618.11
1943.03,8602.36
1945.79,9783.46
1948.55,10767.7
1951.3,12145.7
1954.06,13523.6
1956.81,14704.7
1959.57,15689
1962.33,16673.2
1965.08,17066.9
1967.84,17066.9
1970.6,17066.9
1973.35,16673.2
1976.11,15689
1978.87,14311
1981.62,12933.1
1984.38,11555.1
1987.14,9980.31
1989.89,8405.51
1992.65,6830.71
1995.41,5452.76
1998.16,4271.65
2000.92,3287.4
2003.68,2303.15
2006.43,1515.75
2009.19,925.197
2011.94,728.346
2014.7,334.646
2017.46,137.795
2020.21,137.795
2022.97,137.795
2025.73,137.795
2028.48,137.795
2031.24,334.646
2034,531.496
2036.75,925.197
2039.51,1318.9
2042.27,1909.45
2045.02,2696.85
2047.78,3484.25
2050.54,4271.65
2053.29,5255.91
2056.05,6043.31
2058.81,7027.56
2061.56,7814.96
2064.32,8405.51
2067.08,8799.21
2069.83,8996.06
2072.59,9192.91
2075.34,9192.91
2078.1,9389.76
2080.86,9783.46
2083.61,10570.9
2086.37,11358.3
2089.13,12539.4
2091.88,13917.3
2094.64,15492.1
2097.4,16476.4
2100.15,16870.1
2102.91,17263.8
2105.67,16476.4
2108.42,15885.8
2111.18,13917.3
2113.94,11358.3
2116.69,8799.21
2119.45,6830.71
2122.21,5255.91
2124.96,3681.1
2127.72,2500
2130.47,1712.6
2133.23,1122.05
2135.99,925.197
2138.74,531.496
2141.5,334.646
2144.26,334.646
2147.01,137.795
2149.77,137.795
2152.53,137.795
2155.28,137.795
2158.04,137.795
2160.8,137.795
2163.55,137.795
2166.31,137.795
2169.07,137.795
2171.82,137.795
2174.58,137.795
2177.34,137.795
2180.09,137.795
2182.85,137.795
2185.6,137.795
2188.36,137.795
2191.12,137.795
2193.87,137.795
2196.63,137.795
2199.39,137.795
2202.14,137.795
2204.9,137.795
2207.66,137.795
2210.41,137.795
2213.17,137.795
2215.93,137.795
2218.68,137.795
2221.44,137.795
2224.2,137.795
2226.95,137.795
2229.71,137.795
2232.47,137.795
2235.22,137.795
2237.98,137.795
2240.74,137.795
2243.49,137.795
2246.25,137.795
2249,137.795
2251.76,137.795
2254.52,137.795
2257.27,137.795
2260.03,137.795
2262.79,137.795
2265.54,137.795
2268.3,137.795
2271.06,137.795
2273.81,137.795
2276.57,137.795
2279.33,137.795
2282.08,137.795
2284.84,137.795
2287.6,137.795
2290.35,137.795
2293.11,137.795
