,GP550R
RamanShit,Intensity
255.707,328.125
258.762,78.125
261.817,78.125
264.871,78.125
267.926,78.125
270.981,78.125
274.035,78.125
277.09,78.125
280.145,109.375
283.199,78.125
286.254,78.125
289.309,78.125
292.363,46.875
295.418,46.875
298.473,46.875
301.527,46.875
304.582,78.125
307.637,78.125
310.691,109.375
313.746,109.375
316.801,109.375
319.855,109.375
322.91,78.125
325.965,78.125
329.019,78.125
332.074,78.125
335.129,109.375
338.183,140.625
341.238,140.625
344.293,203.125
347.347,265.625
350.402,390.625
353.457,484.375
356.511,515.625
359.566,578.125
362.621,703.125
365.675,921.875
368.73,1328.13
371.785,1578.13
374.839,2078.13
377.894,1578.13
380.949,1515.63
384.003,1328.13
387.058,1046.88
390.113,890.625
393.167,953.125
396.222,953.125
399.277,984.375
402.331,1203.13
405.386,1859.38
408.441,3234.38
411.495,6421.88
414.55,6671.88
417.605,4078.13
420.659,3140.63
423.714,1890.63
426.768,1609.38
429.823,1484.38
432.878,1296.88
435.932,1109.38
438.987,984.375
442.042,921.875
445.096,828.125
448.151,765.625
451.206,671.875
454.26,609.375
457.315,546.875
460.37,484.375
463.424,453.125
466.479,421.875
469.534,390.625
472.588,390.625
475.643,390.625
478.698,359.375
481.752,359.375
484.807,296.875
487.862,265.625
490.916,171.875
493.971,109.375
497.026,109.375
500.08,109.375
503.135,109.375
506.19,140.625
509.244,140.625
512.299,140.625
515.354,140.625
518.408,140.625
521.463,140.625
524.518,140.625
527.572,140.625
530.627,140.625
533.682,140.625
536.736,234.375
539.791,109.375
542.846,78.125
545.9,109.375
548.955,109.375
552.01,109.375
555.064,109.375
558.119,109.375
561.174,140.625
564.228,140.625
567.283,140.625
570.338,171.875
573.392,265.625
576.447,171.875
579.502,140.625
582.556,78.125
585.611,46.875
588.666,46.875
591.72,46.875
594.775,46.875
597.83,46.875
600.884,78.125
603.939,78.125
606.994,46.875
610.048,46.875
613.103,78.125
616.158,78.125
619.212,78.125
622.267,78.125
625.322,78.125
628.376,78.125
631.431,109.375
634.486,265.625
637.54,546.875
640.595,1140.63
643.65,1203.13
646.704,671.875
649.759,546.875
652.814,296.875
655.868,140.625
658.923,109.375
661.977,78.125
665.032,78.125
668.087,78.125
671.141,78.125
674.196,78.125
677.251,78.125
680.305,78.125
683.36,78.125
686.415,78.125
689.469,78.125
692.524,78.125
695.579,78.125
698.633,78.125
701.688,78.125
704.743,78.125
707.797,78.125
710.852,78.125
713.907,78.125
716.961,78.125
720.016,78.125
723.071,78.125
726.125,78.125
729.18,78.125
732.235,140.625
735.289,203.125
738.344,328.125
741.399,484.375
744.453,609.375
747.508,890.625
750.563,765.625
753.617,609.375
756.672,515.625
759.727,359.375
762.781,234.375
765.836,140.625
768.891,109.375
771.945,78.125
775,78.125
778.055,78.125
781.109,78.125
784.164,78.125
787.219,78.125
790.273,78.125
793.328,78.125
796.383,78.125
799.437,78.125
802.492,78.125
805.547,78.125
808.601,78.125
811.656,78.125
814.711,78.125
817.765,78.125
820.82,78.125
823.875,78.125
826.929,78.125
829.984,78.125
833.039,78.125
836.093,78.125
839.148,78.125
842.203,78.125
845.257,46.875
848.312,46.875
851.367,46.875
854.421,46.875
857.476,46.875
860.531,46.875
863.585,46.875
866.64,46.875
869.695,46.875
872.749,46.875
875.804,78.125
878.859,78.125
881.913,78.125
884.968,78.125
888.023,78.125
891.077,78.125
894.132,78.125
897.186,46.875
900.241,46.875
903.296,46.875
906.35,46.875
909.405,46.875
912.46,46.875
915.514,46.875
918.569,46.875
921.624,46.875
924.678,78.125
927.733,78.125
930.788,46.875
933.842,46.875
936.897,46.875
939.952,46.875
943.006,46.875
946.061,78.125
949.116,78.125
952.17,78.125
955.225,46.875
958.28,46.875
961.334,46.875
964.389,46.875
967.444,46.875
970.498,78.125
973.553,46.875
976.608,46.875
979.662,46.875
982.717,46.875
985.772,46.875
988.826,78.125
991.881,46.875
994.936,46.875
997.99,46.875
1001.05,78.125
1004.1,78.125
1007.15,78.125
1010.21,78.125
1013.26,78.125
1016.32,46.875
1019.37,46.875
1022.43,46.875
1025.48,46.875
1028.54,46.875
1031.59,46.875
1034.65,46.875
1037.7,78.125
1040.76,78.125
1043.81,78.125
1046.86,78.125
1049.92,78.125
1052.97,78.125
1056.03,78.125
1059.08,78.125
1062.14,78.125
1065.19,78.125
1068.25,78.125
1071.3,78.125
1074.36,78.125
1077.41,78.125
1080.47,46.875
1083.52,46.875
1086.58,46.875
1089.63,46.875
1092.68,78.125
1095.74,78.125
1098.79,78.125
1101.85,78.125
1104.9,78.125
1107.96,78.125
1111.01,78.125
1114.07,78.125
1117.12,78.125
1120.18,78.125
1123.23,78.125
1126.29,78.125
1129.34,78.125
1132.4,78.125
1135.45,109.375
1138.5,140.625
1141.56,171.875
1144.61,171.875
1147.67,203.125
1150.72,203.125
1153.78,203.125
1156.83,234.375
1159.89,265.625
1162.94,296.875
1166,296.875
1169.05,328.125
1172.11,328.125
1175.16,296.875
1178.22,265.625
1181.27,234.375
1184.32,140.625
1187.38,109.375
1190.43,109.375
1193.49,109.375
1196.54,78.125
1199.6,46.875
1202.65,46.875
1205.71,46.875
1208.76,78.125
1211.82,109.375
1214.87,140.625
1217.93,140.625
1220.98,140.625
1224.04,171.875
1227.09,171.875
1230.14,140.625
1233.2,140.625
1236.25,140.625
1239.31,109.375
1242.36,109.375
1245.42,78.125
1248.47,78.125
1251.53,78.125
1254.58,78.125
1257.64,78.125
1260.69,46.875
1263.75,46.875
1266.8,46.875
1269.86,78.125
1272.91,78.125
1275.96,109.375
1279.02,109.375
1282.07,140.625
1285.13,140.625
1288.18,140.625
1291.24,109.375
1294.29,109.375
1297.35,78.125
1300.4,46.875
1303.46,46.875
1306.51,46.875
1309.57,46.875
1312.62,46.875
1315.68,46.875
1318.73,46.875
1321.78,46.875
1324.84,46.875
1327.89,78.125
1330.95,109.375
1334,140.625
1337.06,171.875
1340.11,234.375
1343.17,265.625
1346.22,265.625
1349.28,296.875
1352.33,296.875
1355.39,265.625
1358.44,234.375
1361.5,203.125
1364.55,171.875
1367.6,171.875
1370.66,109.375
1373.71,109.375
1376.77,109.375
1379.82,78.125
1382.88,78.125
1385.93,78.125
1388.99,78.125
1392.04,78.125
1395.1,78.125
1398.15,78.125
1401.21,109.375
1404.26,109.375
1407.32,109.375
1410.37,109.375
1413.42,109.375
1416.48,109.375
1419.53,109.375
1422.59,78.125
1425.64,78.125
1428.7,78.125
1431.75,78.125
1434.81,46.875
1437.86,46.875
1440.92,46.875
1443.97,46.875
1447.03,46.875
1450.08,46.875
1453.14,46.875
1456.19,46.875
1459.24,46.875
1462.3,46.875
1465.35,46.875
1468.41,46.875
1471.46,46.875
1474.52,46.875
1477.57,46.875
1480.63,46.875
1483.68,78.125
1486.74,78.125
1489.79,78.125
1492.85,78.125
1495.9,78.125
1498.95,78.125
1502.01,78.125
1505.06,78.125
1508.12,109.375
1511.17,109.375
1514.23,109.375
1517.28,78.125
1520.34,78.125
1523.39,78.125
1526.45,78.125
1529.5,46.875
1532.56,46.875
1535.61,46.875
1538.67,46.875
1541.72,78.125
1544.77,78.125
1547.83,78.125
1550.88,78.125
1553.94,78.125
1556.99,78.125
1560.05,78.125
1563.1,78.125
1566.16,109.375
1569.21,109.375
1572.27,140.625
1575.32,109.375
1578.38,109.375
1581.43,109.375
1584.49,109.375
1587.54,109.375
1590.59,109.375
1593.65,109.375
1596.7,109.375
1599.76,109.375
1602.81,109.375
1605.87,109.375
1608.92,109.375
1611.98,140.625
1615.03,109.375
1618.09,109.375
1621.14,78.125
1624.2,78.125
1627.25,78.125
1630.31,78.125
1633.36,46.875
1636.41,46.875
1639.47,46.875
1642.52,46.875
1645.58,46.875
1648.63,46.875
1651.69,46.875
1654.74,46.875
1657.8,46.875
1660.85,46.875
1663.91,46.875
1666.96,46.875
1670.02,46.875
1673.07,46.875
1676.13,46.875
1679.18,46.875
1682.23,46.875
1685.29,46.875
1688.34,78.125
1691.4,78.125
1694.45,78.125
1697.51,78.125
1700.56,78.125
1703.62,78.125
1706.67,78.125
1709.73,78.125
1712.78,78.125
1715.84,78.125
1718.89,78.125
1721.95,78.125
1725,78.125
1728.05,78.125
1731.11,78.125
1734.16,78.125
1737.22,78.125
1740.27,78.125
1743.33,78.125
1746.38,78.125
1749.44,78.125
1752.49,78.125
1755.55,78.125
1758.6,78.125
1761.66,78.125
1764.71,78.125
1767.77,78.125
1770.82,78.125
1773.87,78.125
1776.93,78.125
1779.98,78.125
1783.04,78.125
1786.09,78.125
1789.15,78.125
1792.2,78.125
1795.26,46.875
1798.31,46.875
1801.37,46.875
1804.42,46.875
1807.48,78.125
1810.53,78.125
1813.59,78.125
1816.64,78.125
1819.69,78.125
1822.75,78.125
1825.8,78.125
1828.86,78.125
1831.91,78.125
1834.97,78.125
1838.02,78.125
1841.08,78.125
1844.13,78.125
1847.19,78.125
1850.24,78.125
1853.3,46.875
1856.35,46.875
1859.41,46.875
1862.46,46.875
1865.51,78.125
1868.57,78.125
1871.62,78.125
1874.68,78.125
1877.73,78.125
1880.79,78.125
1883.84,78.125
1886.9,78.125
1889.95,78.125
1893.01,78.125
1896.06,78.125
1899.12,78.125
1902.17,78.125
1905.23,78.125
1908.28,78.125
1911.33,78.125
1914.39,78.125
1917.44,78.125
1920.5,78.125
1923.55,78.125
1926.61,78.125
1929.66,78.125
1932.72,78.125
1935.77,78.125
1938.83,78.125
1941.88,78.125
1944.94,78.125
1947.99,78.125
1951.05,78.125
1954.1,78.125
1957.15,78.125
1960.21,78.125
1963.26,78.125
1966.32,78.125
1969.37,78.125
1972.43,78.125
1975.48,78.125
1978.54,78.125
1981.59,78.125
1984.65,78.125
1987.7,78.125
1990.76,78.125
1993.81,78.125
1996.86,78.125
1999.92,78.125
2002.97,78.125
2006.03,78.125
2009.08,78.125
2012.14,78.125
2015.19,78.125
2018.25,78.125
2021.3,78.125
2024.36,78.125
2027.41,78.125
2030.47,78.125
2033.52,78.125
2036.58,78.125
2039.63,78.125
2042.68,78.125
2045.74,78.125
2048.79,78.125
2051.85,78.125
2054.9,78.125
2057.96,78.125
2061.01,78.125
2064.07,78.125
2067.12,78.125
2070.18,78.125
2073.23,78.125
2076.29,78.125
2079.34,78.125
2082.4,78.125
2085.45,78.125
2088.5,78.125
2091.56,78.125
2094.61,46.875
2097.67,46.875
2100.72,46.875
2103.78,46.875
2106.83,46.875
2109.89,46.875
2112.94,78.125
2116,78.125
2119.05,78.125
2122.11,78.125
2125.16,78.125
2128.22,78.125
2131.27,78.125
2134.32,78.125
2137.38,78.125
2140.43,78.125
2143.49,78.125
2146.54,78.125
2149.6,78.125
2152.65,46.875
2155.71,46.875
2158.76,46.875
2161.82,46.875
2164.87,46.875
2167.93,46.875
2170.98,78.125
2174.04,78.125
2177.09,78.125
2180.14,78.125
2183.2,78.125
2186.25,78.125
2189.31,78.125
2192.36,78.125
2195.42,46.875
2198.47,46.875
2201.53,46.875
2204.58,46.875
2207.64,78.125
2210.69,78.125
2213.75,78.125
2216.8,78.125
2219.86,78.125
2222.91,78.125
2225.96,109.375
2229.02,78.125
2232.07,78.125
2235.13,78.125
2238.18,78.125
2241.24,78.125
2244.29,78.125
2247.35,78.125
2250.4,78.125
2253.46,78.125
2256.51,78.125
2259.57,78.125
2262.62,78.125
2265.68,78.125
2268.73,78.125
2271.78,78.125
2274.84,78.125
2277.89,78.125
2280.95,78.125
2284,78.125
2287.06,78.125
2290.11,78.125
