,GP550R
RamanShit,Intensity
255.565,25196.9
258.629,5196.85
261.694,4251.97
264.758,5354.33
267.823,6299.21
270.887,5354.33
273.952,5196.85
277.016,4724.41
280.081,3937.01
283.145,3779.53
286.21,3622.05
289.274,3307.09
292.339,2519.69
295.403,1417.32
298.468,629.921
301.532,472.441
304.597,472.441
307.661,629.921
310.726,944.882
313.79,1889.76
316.855,2834.65
319.919,3307.09
322.984,3937.01
326.048,3307.09
329.113,3149.61
332.177,2204.72
335.242,944.882
338.306,472.441
341.371,314.961
344.435,157.48
347.5,157.48
350.565,157.48
353.629,157.48
356.694,157.48
359.758,157.48
362.823,314.961
365.887,314.961
368.952,472.441
372.016,787.402
375.081,1102.36
378.145,1732.28
381.21,2519.69
384.274,2992.13
387.339,3622.05
390.403,2992.13
393.468,2677.17
396.532,2047.24
399.597,1102.36
402.661,629.921
405.726,472.441
408.79,314.961
411.855,314.961
414.919,314.961
417.984,314.961
421.048,472.441
424.113,629.921
427.177,1102.36
430.242,2204.72
433.306,3937.01
436.371,4881.89
439.435,5039.37
442.5,5511.81
445.565,6141.73
448.629,6299.21
451.694,8503.94
454.758,14488.2
457.823,18267.7
460.887,23307.1
463.952,18267.7
467.016,15905.5
470.081,10708.7
473.145,6614.17
476.21,4409.45
479.274,3307.09
482.339,2362.2
485.403,1417.32
488.468,944.882
491.532,944.882
494.597,944.882
497.661,1102.36
500.726,1732.28
503.79,3307.09
506.855,5669.29
509.919,5826.77
512.984,3937.01
516.048,2992.13
519.113,1417.32
522.177,629.921
525.242,314.961
528.306,472.441
531.371,472.441
534.435,787.402
537.5,1574.8
540.565,2677.17
543.629,4566.93
546.694,7874.02
549.758,10236.2
552.823,15275.6
555.887,16063
558.952,10236.2
562.016,8346.46
565.081,5039.37
568.145,2992.13
571.21,1732.28
574.274,1102.36
577.339,787.402
580.403,629.921
583.468,314.961
586.532,157.48
589.597,157.48
592.661,157.48
595.726,157.48
598.79,157.48
601.855,157.48
604.919,314.961
607.984,314.961
611.048,472.441
614.113,787.402
617.177,1102.36
620.242,1889.76
623.306,3622.05
626.371,5196.85
629.435,9291.34
632.5,10078.7
635.565,5196.85
638.629,3937.01
641.694,2047.24
644.758,1259.84
647.823,1102.36
650.887,1102.36
653.952,1102.36
657.016,944.882
660.081,629.921
663.145,314.961
666.21,157.48
669.274,157.48
672.339,157.48
675.403,157.48
678.468,157.48
681.532,157.48
684.597,157.48
687.661,157.48
690.726,157.48
693.79,157.48
696.855,157.48
699.919,157.48
702.984,157.48
706.048,157.48
709.113,157.48
712.177,157.48
715.242,157.48
718.306,157.48
721.371,157.48
724.435,157.48
727.5,157.48
730.565,157.48
733.629,157.48
736.694,157.48
739.758,157.48
742.823,157.48
745.887,157.48
748.952,157.48
752.016,314.961
755.081,314.961
758.145,314.961
761.21,314.961
764.274,314.961
767.339,314.961
770.403,314.961
773.468,314.961
776.532,472.441
779.597,472.441
782.661,629.921
785.726,629.921
788.79,629.921
791.855,472.441
794.919,314.961
797.984,314.961
801.048,314.961
804.113,157.48
807.177,157.48
810.242,157.48
813.306,314.961
816.371,314.961
819.435,314.961
822.5,157.48
825.565,157.48
828.629,157.48
831.694,157.48
834.758,157.48
837.823,157.48
840.887,157.48
843.952,157.48
847.016,157.48
850.081,157.48
853.145,157.48
856.21,157.48
859.274,157.48
862.339,157.48
865.403,157.48
868.468,157.48
871.532,157.48
874.597,157.48
877.661,157.48
880.726,157.48
883.79,157.48
886.855,157.48
889.919,157.48
892.984,157.48
896.048,157.48
899.113,157.48
902.177,157.48
905.242,157.48
908.306,157.48
911.371,157.48
914.435,157.48
917.5,157.48
920.565,157.48
923.629,157.48
926.694,157.48
929.758,157.48
932.823,157.48
935.887,157.48
938.952,157.48
942.016,157.48
945.081,314.961
948.145,314.961
951.21,314.961
954.274,314.961
957.339,314.961
960.403,314.961
963.468,472.441
966.532,944.882
969.597,1259.84
972.661,1417.32
975.726,1102.36
978.79,944.882
981.855,629.921
984.919,472.441
987.984,314.961
991.048,314.961
994.113,314.961
997.177,314.961
1000.24,314.961
1003.31,314.961
1006.37,157.48
1009.44,157.48
1012.5,157.48
1015.56,157.48
1018.63,157.48
1021.69,314.961
1024.76,472.441
1027.82,629.921
1030.89,944.882
1033.95,1417.32
1037.02,2362.2
1040.08,3622.05
1043.15,5354.33
1046.21,7874.02
1049.27,10393.7
1052.34,20315
1055.4,21889.8
1058.47,11023.6
1061.53,8661.42
1064.6,5039.37
1067.66,2992.13
1070.73,1574.8
1073.79,944.882
1076.85,629.921
1079.92,472.441
1082.98,157.48
1086.05,157.48
1089.11,157.48
1092.18,314.961
1095.24,472.441
1098.31,787.402
1101.37,1259.84
1104.44,1417.32
1107.5,1417.32
1110.56,1417.32
1113.63,1574.8
1116.69,1732.28
1119.76,2362.2
1122.82,3622.05
1125.89,5511.81
1128.95,9291.34
1132.02,9606.3
1135.08,6614.17
1138.15,5669.29
1141.21,3937.01
1144.27,2519.69
1147.34,1732.28
1150.4,1259.84
1153.47,787.402
1156.53,629.921
1159.6,472.441
1162.66,314.961
1165.73,314.961
1168.79,314.961
1171.85,157.48
1174.92,157.48
1177.98,157.48
1181.05,157.48
1184.11,157.48
1187.18,157.48
1190.24,157.48
1193.31,157.48
1196.37,157.48
1199.44,157.48
1202.5,157.48
1205.56,157.48
1208.63,157.48
1211.69,157.48
1214.76,314.961
1217.82,314.961
1220.89,314.961
1223.95,314.961
1227.02,472.441
1230.08,472.441
1233.15,472.441
1236.21,472.441
1239.27,472.441
1242.34,472.441
1245.4,629.921
1248.47,629.921
1251.53,472.441
1254.6,472.441
1257.66,472.441
1260.73,472.441
1263.79,472.441
1266.85,472.441
1269.92,472.441
1272.98,472.441
1276.05,472.441
1279.11,472.441
1282.18,314.961
1285.24,314.961
1288.31,314.961
1291.37,314.961
1294.44,314.961
1297.5,314.961
1300.56,314.961
1303.63,314.961
1306.69,314.961
1309.76,314.961
1312.82,314.961
1315.89,314.961
1318.95,314.961
1322.02,314.961
1325.08,314.961
1328.15,314.961
1331.21,314.961
1334.27,314.961
1337.34,314.961
1340.4,314.961
1343.47,314.961
1346.53,314.961
1349.6,314.961
1352.66,472.441
1355.73,314.961
1358.79,314.961
1361.85,314.961
1364.92,314.961
1367.98,314.961
1371.05,314.961
1374.11,314.961
1377.18,314.961
1380.24,314.961
1383.31,314.961
1386.37,314.961
1389.44,314.961
1392.5,314.961
1395.56,472.441
1398.63,472.441
1401.69,472.441
1404.76,472.441
1407.82,472.441
1410.89,629.921
1413.95,472.441
1417.02,472.441
1420.08,472.441
1423.15,472.441
1426.21,472.441
1429.27,472.441
1432.34,472.441
1435.4,472.441
1438.47,472.441
1441.53,314.961
1444.6,314.961
1447.66,314.961
1450.73,314.961
1453.79,314.961
1456.85,314.961
1459.92,314.961
1462.98,314.961
1466.05,314.961
1469.11,314.961
1472.18,314.961
1475.24,314.961
1478.31,314.961
1481.37,314.961
1484.44,314.961
1487.5,314.961
1490.56,314.961
1493.63,314.961
1496.69,314.961
1499.76,314.961
1502.82,314.961
1505.89,314.961
1508.95,314.961
1512.02,314.961
1515.08,314.961
1518.15,314.961
1521.21,314.961
1524.27,314.961
1527.34,314.961
1530.4,314.961
1533.47,314.961
1536.53,314.961
1539.6,314.961
1542.66,314.961
1545.73,314.961
1548.79,472.441
1551.85,472.441
1554.92,472.441
1557.98,472.441
1561.05,472.441
1564.11,472.441
1567.18,472.441
1570.24,472.441
1573.31,472.441
1576.37,472.441
1579.44,472.441
1582.5,472.441
1585.56,472.441
1588.63,472.441
1591.69,472.441
1594.76,472.441
1597.82,472.441
1600.89,472.441
1603.95,472.441
1607.02,472.441
1610.08,472.441
1613.15,314.961
1616.21,314.961
1619.27,314.961
1622.34,314.961
1625.4,314.961
1628.47,314.961
1631.53,314.961
1634.6,314.961
1637.66,314.961
1640.73,314.961
1643.79,157.48
1646.85,157.48
1649.92,157.48
1652.98,157.48
1656.05,157.48
1659.11,157.48
1662.18,157.48
1665.24,157.48
1668.31,157.48
1671.37,157.48
1674.44,157.48
1677.5,157.48
1680.56,157.48
1683.63,157.48
1686.69,157.48
1689.76,157.48
1692.82,157.48
1695.89,157.48
1698.95,157.48
1702.02,157.48
1705.08,157.48
1708.15,157.48
1711.21,157.48
1714.27,314.961
1717.34,314.961
1720.4,314.961
1723.47,314.961
1726.53,314.961
1729.6,314.961
1732.66,314.961
1735.73,157.48
1738.79,157.48
1741.85,157.48
1744.92,157.48
1747.98,157.48
1751.05,157.48
1754.11,157.48
1757.18,157.48
1760.24,157.48
1763.31,157.48
1766.37,157.48
1769.44,314.961
1772.5,314.961
1775.56,314.961
1778.63,314.961
1781.69,314.961
1784.76,314.961
1787.82,314.961
1790.89,314.961
1793.95,314.961
1797.02,157.48
1800.08,157.48
1803.15,157.48
1806.21,157.48
1809.27,157.48
1812.34,157.48
1815.4,157.48
1818.47,157.48
1821.53,157.48
1824.6,157.48
1827.66,157.48
1830.73,157.48
1833.79,157.48
1836.85,157.48
1839.92,157.48
1842.98,157.48
1846.05,157.48
1849.11,157.48
1852.18,157.48
1855.24,157.48
1858.31,157.48
1861.37,157.48
1864.44,157.48
1867.5,157.48
1870.56,157.48
1873.63,157.48
1876.69,157.48
1879.76,157.48
1882.82,157.48
1885.89,157.48
1888.95,157.48
1892.02,157.48
1895.08,157.48
1898.15,157.48
1901.21,157.48
1904.27,157.48
1907.34,157.48
1910.4,314.961
1913.47,314.961
1916.53,314.961
1919.6,314.961
1922.66,314.961
1925.73,314.961
1928.79,314.961
1931.85,314.961
1934.92,314.961
1937.98,314.961
1941.05,314.961
1944.11,314.961
1947.18,314.961
1950.24,314.961
1953.31,314.961
1956.37,314.961
1959.44,314.961
1962.5,314.961
1965.56,314.961
1968.63,314.961
1971.69,314.961
1974.76,314.961
1977.82,314.961
1980.89,314.961
1983.95,314.961
1987.02,314.961
1990.08,314.961
1993.15,314.961
1996.21,314.961
1999.27,157.48
2002.34,157.48
2005.4,157.48
2008.47,157.48
2011.53,157.48
2014.6,157.48
2017.66,157.48
2020.73,157.48
2023.79,157.48
2026.85,314.961
2029.92,314.961
2032.98,314.961
2036.05,314.961
2039.11,314.961
2042.18,157.48
2045.24,157.48
2048.31,157.48
2051.37,157.48
2054.44,157.48
2057.5,157.48
2060.56,157.48
2063.63,157.48
2066.69,157.48
2069.76,157.48
2072.82,157.48
2075.89,157.48
2078.95,157.48
2082.02,157.48
2085.08,157.48
2088.15,314.961
2091.21,314.961
2094.27,157.48
2097.34,157.48
2100.4,157.48
2103.47,157.48
2106.53,157.48
2109.6,157.48
2112.66,314.961
2115.73,314.961
2118.79,314.961
2121.85,314.961
2124.92,314.961
2127.98,314.961
2131.05,314.961
2134.11,314.961
2137.18,157.48
2140.24,157.48
2143.31,157.48
2146.37,157.48
2149.44,157.48
2152.5,157.48
2155.56,157.48
2158.63,157.48
2161.69,157.48
2164.76,157.48
2167.82,157.48
2170.89,157.48
2173.95,157.48
2177.02,157.48
2180.08,157.48
2183.15,157.48
2186.21,157.48
2189.27,157.48
2192.34,157.48
2195.4,157.48
2198.47,157.48
2201.53,157.48
2204.6,157.48
2207.66,157.48
2210.73,157.48
2213.79,157.48
2216.85,157.48
2219.92,157.48
2222.98,157.48
2226.05,157.48
2229.11,157.48
2232.18,157.48
2235.24,157.48
2238.31,157.48
2241.37,157.48
2244.44,157.48
2247.5,157.48
2250.56,157.48
2253.63,314.961
2256.69,314.961
2259.76,157.48
2262.82,157.48
2265.89,157.48
2268.95,157.48
2272.02,157.48
2275.08,157.48
2278.15,157.48
2281.21,157.48
2284.27,157.48
2287.34,157.48
2290.4,157.48
2293.47,314.961
2296.53,-9921.26
2299.6,-9921.26
