,GP550R
RamanShit,Intensity
258.762,19.7628
261.817,19.7628
264.871,19.7628
267.926,19.7628
270.981,75.0988
274.035,185.771
277.09,241.107
280.145,351.779
283.199,407.115
286.254,407.115
289.309,407.115
292.363,407.115
295.418,462.451
298.473,573.123
301.527,849.802
304.582,1015.81
307.637,1181.82
310.691,1015.81
313.746,960.474
316.801,739.13
319.855,573.123
322.91,517.787
325.965,517.787
329.019,517.787
332.074,573.123
335.129,573.123
338.183,628.458
341.238,628.458
344.293,573.123
347.347,462.451
350.402,351.779
353.457,241.107
356.511,75.0988
359.566,19.7628
362.621,19.7628
365.675,19.7628
368.73,19.7628
371.785,19.7628
374.839,19.7628
377.894,19.7628
380.949,19.7628
384.003,19.7628
387.058,19.7628
390.113,75.0988
393.167,75.0988
396.222,75.0988
399.277,75.0988
402.331,130.435
405.386,241.107
408.441,296.443
411.495,351.779
414.55,351.779
417.605,296.443
420.659,296.443
423.714,296.443
426.768,296.443
429.823,296.443
432.878,351.779
435.932,351.779
438.987,296.443
442.042,241.107
445.096,185.771
448.151,130.435
451.206,130.435
454.26,130.435
457.315,75.0988
460.37,75.0988
463.424,75.0988
466.479,130.435
469.534,185.771
472.588,296.443
475.643,462.451
478.698,739.13
481.752,1126.48
484.807,1347.83
487.862,1624.51
490.916,1347.83
493.971,1292.49
497.026,960.474
500.08,573.123
503.135,351.779
506.19,296.443
509.244,185.771
512.299,185.771
515.354,185.771
518.408,241.107
521.463,296.443
524.518,351.779
527.572,351.779
530.627,296.443
533.682,296.443
536.736,296.443
539.791,185.771
542.846,75.0988
545.9,75.0988
548.955,75.0988
552.01,75.0988
555.064,130.435
558.119,130.435
561.174,185.771
564.228,241.107
567.283,296.443
570.338,351.779
573.392,351.779
576.447,296.443
579.502,241.107
582.556,241.107
585.611,296.443
588.666,351.779
591.72,351.779
594.775,407.115
597.83,296.443
600.884,241.107
603.939,130.435
606.994,75.0988
610.048,75.0988
613.103,75.0988
616.158,130.435
619.212,130.435
622.267,185.771
625.322,130.435
628.376,130.435
631.431,130.435
634.486,130.435
637.54,75.0988
640.595,75.0988
643.65,75.0988
646.704,75.0988
649.759,75.0988
652.814,75.0988
655.868,19.7628
658.923,19.7628
661.977,19.7628
665.032,75.0988
668.087,185.771
671.141,185.771
674.196,241.107
677.251,241.107
680.305,241.107
683.36,185.771
686.415,130.435
689.469,130.435
692.524,130.435
695.579,75.0988
698.633,19.7628
701.688,19.7628
704.743,19.7628
707.797,19.7628
710.852,19.7628
713.907,19.7628
716.961,19.7628
720.016,75.0988
723.071,75.0988
726.125,75.0988
729.18,75.0988
732.235,75.0988
735.289,19.7628
738.344,19.7628
741.399,19.7628
744.453,19.7628
747.508,19.7628
750.563,19.7628
753.617,19.7628
756.672,19.7628
759.727,19.7628
762.781,19.7628
765.836,19.7628
768.891,19.7628
771.945,19.7628
775,19.7628
778.055,19.7628
781.109,19.7628
784.164,19.7628
787.219,19.7628
790.273,19.7628
793.328,19.7628
796.383,19.7628
799.437,19.7628
802.492,19.7628
805.547,19.7628
808.601,19.7628
811.656,75.0988
814.711,75.0988
817.765,75.0988
820.82,75.0988
823.875,75.0988
826.929,75.0988
829.984,75.0988
833.039,130.435
836.093,130.435
839.148,130.435
842.203,130.435
845.257,130.435
848.312,130.435
851.367,130.435
854.421,185.771
857.476,241.107
860.531,351.779
863.585,407.115
866.64,573.123
869.695,573.123
872.749,573.123
875.804,517.787
878.859,462.451
881.913,407.115
884.968,351.779
888.023,351.779
891.077,296.443
894.132,241.107
897.186,241.107
900.241,185.771
903.296,185.771
906.35,185.771
909.405,241.107
912.46,241.107
915.514,296.443
918.569,407.115
921.624,573.123
924.678,628.458
927.733,739.13
930.788,573.123
933.842,517.787
936.897,296.443
939.952,185.771
943.006,130.435
946.061,130.435
949.116,75.0988
952.17,75.0988
955.225,19.7628
958.28,19.7628
961.334,19.7628
964.389,75.0988
967.444,75.0988
970.498,130.435
973.553,185.771
976.608,296.443
979.662,351.779
982.717,351.779
985.772,351.779
988.826,296.443
991.881,241.107
994.936,130.435
997.99,75.0988
1001.05,75.0988
1004.1,19.7628
1007.15,19.7628
1010.21,19.7628
1013.26,19.7628
1016.32,19.7628
1019.37,19.7628
1022.43,19.7628
1025.48,19.7628
1028.54,19.7628
1031.59,19.7628
1034.65,19.7628
1037.7,19.7628
1040.76,19.7628
1043.81,19.7628
1046.86,19.7628
1049.92,19.7628
1052.97,19.7628
1056.03,19.7628
1059.08,75.0988
1062.14,75.0988
1065.19,130.435
1068.25,130.435
1071.3,241.107
1074.36,130.435
1077.41,130.435
1080.47,130.435
1083.52,130.435
1086.58,130.435
1089.63,130.435
1092.68,130.435
1095.74,75.0988
1098.79,75.0988
1101.85,19.7628
1104.9,19.7628
1107.96,19.7628
1111.01,19.7628
1114.07,19.7628
1117.12,19.7628
1120.18,75.0988
1123.23,185.771
1126.29,351.779
1129.34,628.458
1132.4,960.474
1135.45,1292.49
1138.5,1735.18
1141.56,2122.53
1144.61,2454.55
1147.67,2620.55
1150.72,2675.89
1153.78,2565.22
1156.83,2509.88
1159.89,2343.87
1162.94,2122.53
1166,1845.85
1169.05,1624.51
1172.11,1347.83
1175.16,960.474
1178.22,628.458
1181.27,407.115
1184.32,185.771
1187.38,19.7628
1190.43,19.7628
1193.49,-35.5731
1196.54,-35.5731
1199.6,-35.5731
1202.65,19.7628
1205.71,75.0988
1208.76,241.107
1211.82,462.451
1214.87,794.466
1217.93,1237.15
1220.98,1679.84
1224.04,2233.2
1227.09,2731.23
1230.14,3229.25
1233.2,3671.94
1236.25,4059.29
1239.31,4446.64
1242.36,4889.33
1245.42,5442.69
1248.47,6106.72
1251.53,6826.09
1254.58,7490.12
1257.64,8098.81
1260.69,8596.84
1263.75,9039.53
1266.8,9648.22
1269.86,10367.6
1272.91,11087
1275.96,11751
1279.02,11806.3
1282.07,11363.6
1285.13,11087
1288.18,10256.9
1291.24,9260.87
1294.29,8043.48
1297.35,6604.74
1300.4,5166.01
1303.46,3837.94
1306.51,2509.88
1309.57,1458.5
1312.62,794.466
1315.68,407.115
1318.73,130.435
1321.78,19.7628
1324.84,19.7628
1327.89,19.7628
1330.95,75.0988
1334,241.107
1337.06,517.787
1340.11,849.802
1343.17,1292.49
1346.22,1790.51
1349.28,2399.21
1352.33,3007.91
1355.39,3671.94
1358.44,4557.31
1361.5,5553.36
1364.55,6549.41
1367.6,7656.13
1370.66,8707.51
1373.71,9592.89
1376.77,10312.3
1379.82,10588.9
1382.88,10810.3
1385.93,10588.9
1388.99,10312.3
1392.04,9648.22
1395.1,8707.51
1398.15,7490.12
1401.21,6217.39
1404.26,5000
1407.32,3837.94
1410.37,2841.9
1413.42,2011.86
1416.48,1347.83
1419.53,794.466
1422.59,462.451
1425.64,241.107
1428.7,130.435
1431.75,75.0988
1434.81,130.435
1437.86,185.771
1440.92,241.107
1443.97,407.115
1447.03,573.123
1450.08,683.794
1453.14,849.802
1456.19,905.138
1459.24,960.474
1462.3,1071.15
1465.35,1126.48
1468.41,1237.15
1471.46,1403.16
1474.52,1624.51
1477.57,1845.85
1480.63,2122.53
1483.68,2454.55
1486.74,2897.23
1489.79,3284.58
1492.85,3616.6
1495.9,3948.62
1498.95,4391.3
1502.01,4723.32
1505.06,5000
1508.12,5166.01
1511.17,5166.01
1514.23,5110.67
1517.28,5000
1520.34,4557.31
1523.39,4003.95
1526.45,3339.92
1529.5,2620.55
1532.56,1901.19
1535.61,1292.49
1538.67,739.13
1541.72,407.115
1544.77,296.443
1547.83,241.107
1550.88,407.115
1553.94,573.123
1556.99,1071.15
1560.05,1735.18
1563.1,2399.21
1566.16,3118.58
1569.21,3948.62
1572.27,4612.65
1575.32,5110.67
1578.38,5498.02
1581.43,5830.04
1584.49,6106.72
1587.54,6328.06
1590.59,6549.41
1593.65,6715.42
1596.7,6881.42
1599.76,7102.77
1602.81,7324.11
1605.87,7600.79
1608.92,7932.81
1611.98,8098.81
1615.03,8098.81
1618.09,8098.81
1621.14,8043.48
1624.2,7932.81
1627.25,7656.13
1630.31,7268.77
1633.36,6881.42
1636.41,6383.4
1639.47,5774.7
1642.52,5166.01
1645.58,4557.31
1648.63,3893.28
1651.69,3339.92
1654.74,2731.23
1657.8,2177.87
1660.85,1679.84
1663.91,1237.15
1666.96,794.466
1670.02,517.787
1673.07,296.443
1676.13,130.435
1679.18,75.0988
1682.23,19.7628
1685.29,19.7628
1688.34,19.7628
1691.4,19.7628
1694.45,19.7628
1697.51,19.7628
1700.56,19.7628
1703.62,19.7628
1706.67,19.7628
1709.73,19.7628
1712.78,75.0988
1715.84,19.7628
1718.89,19.7628
1721.95,19.7628
1725,19.7628
1728.05,19.7628
1731.11,19.7628
1734.16,19.7628
1737.22,19.7628
1740.27,19.7628
1743.33,19.7628
1746.38,19.7628
1749.44,19.7628
1752.49,19.7628
1755.55,19.7628
1758.6,19.7628
1761.66,19.7628
1764.71,75.0988
1767.77,185.771
1770.82,185.771
1773.87,241.107
1776.93,296.443
1779.98,351.779
1783.04,351.779
1786.09,351.779
1789.15,296.443
1792.2,241.107
1795.26,185.771
1798.31,130.435
1801.37,19.7628
1804.42,19.7628
1807.48,19.7628
1810.53,19.7628
1813.59,19.7628
1816.64,19.7628
1819.69,19.7628
1822.75,19.7628
1825.8,19.7628
1828.86,19.7628
1831.91,19.7628
1834.97,19.7628
1838.02,19.7628
1841.08,19.7628
1844.13,19.7628
1847.19,19.7628
1850.24,19.7628
1853.3,19.7628
1856.35,19.7628
1859.41,19.7628
1862.46,19.7628
1865.51,19.7628
1868.57,19.7628
1871.62,19.7628
1874.68,19.7628
1877.73,19.7628
1880.79,19.7628
1883.84,19.7628
1886.9,19.7628
1889.95,19.7628
1893.01,19.7628
1896.06,19.7628
1899.12,19.7628
1902.17,19.7628
1905.23,19.7628
1908.28,19.7628
1911.33,19.7628
1914.39,19.7628
1917.44,19.7628
1920.5,19.7628
1923.55,19.7628
1926.61,19.7628
1929.66,19.7628
1932.72,19.7628
1935.77,75.0988
1938.83,19.7628
1941.88,19.7628
1944.94,19.7628
1947.99,19.7628
1951.05,19.7628
1954.1,19.7628
1957.15,19.7628
1960.21,75.0988
1963.26,75.0988
1966.32,19.7628
1969.37,19.7628
1972.43,19.7628
1975.48,19.7628
1978.54,19.7628
1981.59,75.0988
1984.65,75.0988
1987.7,75.0988
1990.76,75.0988
1993.81,75.0988
1996.86,19.7628
1999.92,19.7628
2002.97,19.7628
2006.03,19.7628
2009.08,19.7628
2012.14,75.0988
2015.19,75.0988
2018.25,75.0988
2021.3,75.0988
2024.36,75.0988
2027.41,75.0988
2030.47,75.0988
2033.52,19.7628
2036.58,19.7628
2039.63,19.7628
2042.68,19.7628
2045.74,19.7628
2048.79,75.0988
2051.85,75.0988
2054.9,75.0988
2057.96,75.0988
2061.01,19.7628
2064.07,19.7628
2067.12,19.7628
2070.18,19.7628
2073.23,19.7628
2076.29,19.7628
2079.34,19.7628
2082.4,19.7628
2085.45,19.7628
2088.5,75.0988
2091.56,75.0988
2094.61,75.0988
2097.67,75.0988
2100.72,75.0988
2103.78,75.0988
2106.83,75.0988
2109.89,75.0988
2112.94,75.0988
2116,75.0988
2119.05,130.435
2122.11,75.0988
2125.16,75.0988
2128.22,75.0988
2131.27,75.0988
2134.32,75.0988
2137.38,75.0988
2140.43,130.435
2143.49,130.435
2146.54,75.0988
2149.6,75.0988
2152.65,75.0988
2155.71,75.0988
2158.76,75.0988
2161.82,75.0988
2164.87,75.0988
2167.93,75.0988
2170.98,75.0988
2174.04,75.0988
2177.09,75.0988
2180.14,75.0988
2183.2,19.7628
2186.25,19.7628
2189.31,19.7628
2192.36,19.7628
2195.42,19.7628
2198.47,19.7628
2201.53,19.7628
2204.58,75.0988
2207.64,75.0988
2210.69,75.0988
2213.75,75.0988
2216.8,130.435
2219.86,130.435
2222.91,130.435
2225.96,75.0988
2229.02,75.0988
2232.07,75.0988
2235.13,75.0988
2238.18,75.0988
2241.24,75.0988
2244.29,75.0988
2247.35,130.435
2250.4,130.435
2253.46,75.0988
2256.51,75.0988
2259.57,19.7628
2262.62,19.7628
2265.68,19.7628
2268.73,19.7628
2271.78,75.0988
2274.84,75.0988
2277.89,75.0988
2280.95,75.0988
2284,75.0988
2287.06,75.0988
2290.11,75.0988
